"Block"	"Trial"	"FaceFilename"	"WordFilename"	"Race"	"Fix"	"WordValence"	"Familiar"	"Condition"	"RT"	"Key"	"Error"	"Subnum"
3	1	"C:\Hannah's FYP\Black2_smi.jpg"	""	1	"forehead"	NA	1	111	1216	1	0	1
3	2	"C:\Hannah's FYP\White15_smi.jpg"	""	2	"eyes"	NA	1	221	534	1	0	1
3	3	"C:\Hannah's FYP\White45_smi.jpg"	""	2	"nose"	NA	2	232	289	1	1	1
3	4	"C:\Hannah's FYP\Black41_smi.jpg"	""	1	"nose"	NA	2	132	439	1	1	1
3	5	"C:\Hannah's FYP\White38_smi.jpg"	""	2	"eyes"	NA	2	222	422	1	1	1
3	6	"C:\Hannah's FYP\Black48_smi.jpg"	""	1	"nose"	NA	2	132	414	2	0	1
3	7	"C:\Hannah's FYP\White13_smi.jpg"	""	2	"eyes"	NA	1	221	422	2	1	1
3	8	"C:\Hannah's FYP\Black42_smi.jpg"	""	1	"nose"	NA	2	132	526	1	1	1
3	9	"C:\Hannah's FYP\Black24_smi.jpg"	""	1	"nose"	NA	1	131	841	2	1	1
3	10	"C:\Hannah's FYP\White25_smi.jpg"	""	2	"forehead"	NA	2	212	375	1	1	1
3	11	"C:\Hannah's FYP\White24_smi.jpg"	""	2	"nose"	NA	1	231	1073	1	0	1
3	12	"C:\Hannah's FYP\White46_smi.jpg"	""	2	"nose"	NA	2	232	398	1	1	1
3	13	"C:\Hannah's FYP\Black18_smi.jpg"	""	1	"nose"	NA	1	131	391	1	0	1
3	14	"C:\Hannah's FYP\Black21_smi.jpg"	""	1	"nose"	NA	1	131	1200	1	0	1
3	15	"C:\Hannah's FYP\White3_smi.jpg"	""	2	"forehead"	NA	1	211	302	2	1	1
3	16	"C:\Hannah's FYP\Black8_smi.jpg"	""	1	"forehead"	NA	1	111	595	2	1	1
3	17	"C:\Hannah's FYP\White12_smi.jpg"	""	2	"eyes"	NA	1	221	2172	1	0	1
3	18	"C:\Hannah's FYP\Black12_smi.jpg"	""	1	"eyes"	NA	1	121	568	2	1	1
3	19	"C:\Hannah's FYP\Black7_smi.jpg"	""	1	"forehead"	NA	1	111	385	2	1	1
3	20	"C:\Hannah's FYP\White21_smi.jpg"	""	2	"nose"	NA	1	231	322	2	1	1
3	21	"C:\Hannah's FYP\Black43_smi.jpg"	""	1	"nose"	NA	2	132	702	1	1	1
3	22	"C:\Hannah's FYP\White14_smi.jpg"	""	2	"eyes"	NA	1	221	930	2	1	1
3	23	"C:\Hannah's FYP\White41_smi.jpg"	""	2	"nose"	NA	2	232	460	1	1	1
3	24	"C:\Hannah's FYP\White9_smi.jpg"	""	2	"eyes"	NA	1	221	907	2	1	1
3	25	"C:\Hannah's FYP\White8_smi.jpg"	""	2	"forehead"	NA	1	211	574	2	1	1
3	26	"C:\Hannah's FYP\Black27_smi.jpg"	""	1	"forehead"	NA	2	112	815	1	1	1
3	27	"C:\Hannah's FYP\White20_smi.jpg"	""	2	"nose"	NA	1	231	990	1	0	1
3	28	"C:\Hannah's FYP\White6_smi.jpg"	""	2	"forehead"	NA	1	211	893	1	0	1
3	29	"C:\Hannah's FYP\Black45_smi.jpg"	""	1	"nose"	NA	2	132	240	2	0	1
3	30	"C:\Hannah's FYP\White34_smi.jpg"	""	2	"eyes"	NA	2	222	457	1	1	1
3	31	"C:\Hannah's FYP\White11_smi.jpg"	""	2	"eyes"	NA	1	221	1175	1	0	1
3	32	"C:\Hannah's FYP\Black36_smi.jpg"	""	1	"eyes"	NA	2	122	1110	1	1	1
3	33	"C:\Hannah's FYP\White42_smi.jpg"	""	2	"nose"	NA	2	232	473	1	1	1
3	34	"C:\Hannah's FYP\Black3_smi.jpg"	""	1	"forehead"	NA	1	111	799	2	1	1
3	35	"C:\Hannah's FYP\White26_smi.jpg"	""	2	"forehead"	NA	2	212	439	1	1	1
3	36	"C:\Hannah's FYP\Black14_smi.jpg"	""	1	"eyes"	NA	1	121	758	2	1	1
3	37	"C:\Hannah's FYP\Black33_smi.jpg"	""	1	"eyes"	NA	2	122	1120	1	1	1
3	38	"C:\Hannah's FYP\White43_smi.jpg"	""	2	"nose"	NA	2	232	450	1	1	1
3	39	"C:\Hannah's FYP\Black40_smi.jpg"	""	1	"eyes"	NA	2	122	440	1	1	1
3	40	"C:\Hannah's FYP\Black16_smi.jpg"	""	1	"eyes"	NA	1	121	1519	2	1	1
3	41	"C:\Hannah's FYP\Black19_smi.jpg"	""	1	"nose"	NA	1	131	1072	2	1	1
3	42	"C:\Hannah's FYP\White19_smi.jpg"	""	2	"nose"	NA	1	231	860	2	1	1
3	43	"C:\Hannah's FYP\Black28_smi.jpg"	""	1	"forehead"	NA	2	112	689	1	1	1
3	44	"C:\Hannah's FYP\Black34_smi.jpg"	""	1	"eyes"	NA	2	122	957	1	1	1
3	45	"C:\Hannah's FYP\Black44_smi.jpg"	""	1	"nose"	NA	2	132	374	2	0	1
3	46	"C:\Hannah's FYP\White39_smi.jpg"	""	2	"eyes"	NA	2	222	511	1	1	1
3	47	"C:\Hannah's FYP\White31_smi.jpg"	""	2	"forehead"	NA	2	212	1692	2	0	1
3	48	"C:\Hannah's FYP\Black17_smi.jpg"	""	1	"nose"	NA	1	131	509	2	1	1
3	49	"C:\Hannah's FYP\Black1_smi.jpg"	""	1	"forehead"	NA	1	111	386	2	1	1
3	50	"C:\Hannah's FYP\White18_smi.jpg"	""	2	"nose"	NA	1	231	691	1	0	1
3	51	"C:\Hannah's FYP\Black10_smi.jpg"	""	1	"eyes"	NA	1	121	656	1	0	1
3	52	"C:\Hannah's FYP\White44_smi.jpg"	""	2	"nose"	NA	2	232	486	1	1	1
3	53	"C:\Hannah's FYP\White5_smi.jpg"	""	2	"forehead"	NA	1	211	643	1	0	1
3	54	"C:\Hannah's FYP\Black6_smi.jpg"	""	1	"forehead"	NA	1	111	1273	1	0	1
3	55	"C:\Hannah's FYP\White36_smi.jpg"	""	2	"eyes"	NA	2	222	757	2	0	1
3	56	"C:\Hannah's FYP\Black25_smi.jpg"	""	1	"forehead"	NA	2	112	358	2	0	1
3	57	"C:\Hannah's FYP\White48_smi.jpg"	""	2	"nose"	NA	2	232	929	2	0	1
3	58	"C:\Hannah's FYP\Black23_smi.jpg"	""	1	"nose"	NA	1	131	348	1	0	1
3	59	"C:\Hannah's FYP\White16_smi.jpg"	""	2	"eyes"	NA	1	221	463	2	1	1
3	60	"C:\Hannah's FYP\Black26_smi.jpg"	""	1	"forehead"	NA	2	112	534	1	1	1
3	61	"C:\Hannah's FYP\White28_smi.jpg"	""	2	"forehead"	NA	2	212	610	1	1	1
3	62	"C:\Hannah's FYP\Black11_smi.jpg"	""	1	"eyes"	NA	1	121	5938	1	0	1
3	63	"C:\Hannah's FYP\White30_smi.jpg"	""	2	"forehead"	NA	2	212	3517	2	0	1
3	64	"C:\Hannah's FYP\Black20_smi.jpg"	""	1	"nose"	NA	1	131	600	2	1	1
3	65	"C:\Hannah's FYP\Black22_smi.jpg"	""	1	"nose"	NA	1	131	384	1	0	1
3	66	"C:\Hannah's FYP\White4_smi.jpg"	""	2	"forehead"	NA	1	211	2353	2	1	1
3	67	"C:\Hannah's FYP\Black29_smi.jpg"	""	1	"forehead"	NA	2	112	390	1	1	1
3	68	"C:\Hannah's FYP\White37_smi.jpg"	""	2	"eyes"	NA	2	222	824	2	0	1
3	69	"C:\Hannah's FYP\White33_smi.jpg"	""	2	"eyes"	NA	2	222	863	2	0	1
3	70	"C:\Hannah's FYP\White1_smi.jpg"	""	2	"forehead"	NA	1	211	356	2	1	1
3	71	"C:\Hannah's FYP\White22_smi.jpg"	""	2	"nose"	NA	1	231	1855	2	1	1
3	72	"C:\Hannah's FYP\White40_smi.jpg"	""	2	"eyes"	NA	2	222	418	2	0	1
3	73	"C:\Hannah's FYP\Black5_smi.jpg"	""	1	"forehead"	NA	1	111	138	2	1	1
3	74	"C:\Hannah's FYP\Black15_smi.jpg"	""	1	"eyes"	NA	1	121	174	2	1	1
3	75	"C:\Hannah's FYP\Black4_smi.jpg"	""	1	"forehead"	NA	1	111	928	2	1	1
3	76	"C:\Hannah's FYP\Black46_smi.jpg"	""	1	"nose"	NA	2	132	666	1	1	1
3	77	"C:\Hannah's FYP\White47_smi.jpg"	""	2	"nose"	NA	2	232	728	2	0	1
3	78	"C:\Hannah's FYP\Black39_smi.jpg"	""	1	"eyes"	NA	2	122	411	1	1	1
3	79	"C:\Hannah's FYP\Black30_smi.jpg"	""	1	"forehead"	NA	2	112	219	2	0	1
3	80	"C:\Hannah's FYP\White10_smi.jpg"	""	2	"eyes"	NA	1	221	523	2	1	1
3	81	"C:\Hannah's FYP\White7_smi.jpg"	""	2	"forehead"	NA	1	211	142	1	0	1
3	82	"C:\Hannah's FYP\Black31_smi.jpg"	""	1	"forehead"	NA	2	112	2323	2	0	1
3	83	"C:\Hannah's FYP\Black37_smi.jpg"	""	1	"eyes"	NA	2	122	504	1	1	1
3	84	"C:\Hannah's FYP\Black47_smi.jpg"	""	1	"nose"	NA	2	132	452	2	0	1
3	85	"C:\Hannah's FYP\Black38_smi.jpg"	""	1	"eyes"	NA	2	122	795	2	0	1
3	86	"C:\Hannah's FYP\White23_smi.jpg"	""	2	"nose"	NA	1	231	443	2	1	1
3	87	"C:\Hannah's FYP\White35_smi.jpg"	""	2	"eyes"	NA	2	222	634	2	0	1
3	88	"C:\Hannah's FYP\Black13_smi.jpg"	""	1	"eyes"	NA	1	121	49	2	1	1
3	89	"C:\Hannah's FYP\Black32_smi.jpg"	""	1	"forehead"	NA	2	112	840	2	0	1
3	90	"C:\Hannah's FYP\White17_smi.jpg"	""	2	"nose"	NA	1	231	142	2	1	1
3	91	"C:\Hannah's FYP\Black35_smi.jpg"	""	1	"eyes"	NA	2	122	530	2	0	1
3	92	"C:\Hannah's FYP\White2_smi.jpg"	""	2	"forehead"	NA	1	211	318	1	0	1
3	93	"C:\Hannah's FYP\White27_smi.jpg"	""	2	"forehead"	NA	2	212	73	2	0	1
3	94	"C:\Hannah's FYP\White32_smi.jpg"	""	2	"forehead"	NA	2	212	569	2	0	1
3	95	"C:\Hannah's FYP\Black9_smi.jpg"	""	1	"eyes"	NA	1	121	162	2	1	1
3	96	"C:\Hannah's FYP\White29_smi.jpg"	""	2	"forehead"	NA	2	212	573	2	0	1
3	1	"C:\Hannah's FYP\White42_smi.jpg"	""	2	"nose"	NA	2	232	18702	1	1	2
3	2	"C:\Hannah's FYP\White4_smi.jpg"	""	2	"forehead"	NA	1	211	789	1	0	2
3	3	"C:\Hannah's FYP\White17_smi.jpg"	""	2	"nose"	NA	1	231	1293	2	1	2
3	4	"C:\Hannah's FYP\White44_smi.jpg"	""	2	"nose"	NA	2	232	848	2	0	2
3	5	"C:\Hannah's FYP\White5_smi.jpg"	""	2	"forehead"	NA	1	211	486	1	0	2
3	6	"C:\Hannah's FYP\White41_smi.jpg"	""	2	"nose"	NA	2	232	404	2	0	2
3	7	"C:\Hannah's FYP\Black14_smi.jpg"	""	1	"eyes"	NA	1	121	628	1	0	2
3	8	"C:\Hannah's FYP\Black47_smi.jpg"	""	1	"nose"	NA	2	132	755	2	0	2
3	9	"C:\Hannah's FYP\Black24_smi.jpg"	""	1	"nose"	NA	1	131	428	2	1	2
3	10	"C:\Hannah's FYP\White34_smi.jpg"	""	2	"eyes"	NA	2	222	492	2	0	2
3	11	"C:\Hannah's FYP\White21_smi.jpg"	""	2	"nose"	NA	1	231	1120	1	0	2
3	12	"C:\Hannah's FYP\Black15_smi.jpg"	""	1	"eyes"	NA	1	121	450	1	0	2
3	13	"C:\Hannah's FYP\White23_smi.jpg"	""	2	"nose"	NA	1	231	1129	1	0	2
3	14	"C:\Hannah's FYP\White32_smi.jpg"	""	2	"forehead"	NA	2	212	211	2	0	2
3	15	"C:\Hannah's FYP\Black10_smi.jpg"	""	1	"eyes"	NA	1	121	300	1	0	2
3	16	"C:\Hannah's FYP\Black12_smi.jpg"	""	1	"eyes"	NA	1	121	529	1	0	2
3	17	"C:\Hannah's FYP\White11_smi.jpg"	""	2	"eyes"	NA	1	221	460	1	0	2
3	18	"C:\Hannah's FYP\Black7_smi.jpg"	""	1	"forehead"	NA	1	111	1003	2	1	2
3	19	"C:\Hannah's FYP\Black42_smi.jpg"	""	1	"nose"	NA	2	132	393	2	0	2
3	20	"C:\Hannah's FYP\White46_smi.jpg"	""	2	"nose"	NA	2	232	418	2	0	2
3	21	"C:\Hannah's FYP\Black36_smi.jpg"	""	1	"eyes"	NA	2	122	562	1	1	2
3	22	"C:\Hannah's FYP\Black17_smi.jpg"	""	1	"nose"	NA	1	131	508	2	1	2
3	23	"C:\Hannah's FYP\Black34_smi.jpg"	""	1	"eyes"	NA	2	122	688	2	0	2
3	24	"C:\Hannah's FYP\Black9_smi.jpg"	""	1	"eyes"	NA	1	121	124	1	0	2
3	25	"C:\Hannah's FYP\White1_smi.jpg"	""	2	"forehead"	NA	1	211	289	1	0	2
3	26	"C:\Hannah's FYP\White33_smi.jpg"	""	2	"eyes"	NA	2	222	310	2	0	2
3	27	"C:\Hannah's FYP\Black28_smi.jpg"	""	1	"forehead"	NA	2	112	650	2	0	2
3	28	"C:\Hannah's FYP\White6_smi.jpg"	""	2	"forehead"	NA	1	211	352	2	1	2
3	29	"C:\Hannah's FYP\White12_smi.jpg"	""	2	"eyes"	NA	1	221	306	2	1	2
3	30	"C:\Hannah's FYP\White3_smi.jpg"	""	2	"forehead"	NA	1	211	183	1	0	2
3	31	"C:\Hannah's FYP\Black48_smi.jpg"	""	1	"nose"	NA	2	132	392	1	1	2
3	32	"C:\Hannah's FYP\White45_smi.jpg"	""	2	"nose"	NA	2	232	385	2	0	2
3	33	"C:\Hannah's FYP\Black38_smi.jpg"	""	1	"eyes"	NA	2	122	371	2	0	2
3	34	"C:\Hannah's FYP\Black23_smi.jpg"	""	1	"nose"	NA	1	131	277	2	1	2
3	35	"C:\Hannah's FYP\White30_smi.jpg"	""	2	"forehead"	NA	2	212	387	2	0	2
3	36	"C:\Hannah's FYP\Black4_smi.jpg"	""	1	"forehead"	NA	1	111	372	2	1	2
3	37	"C:\Hannah's FYP\Black11_smi.jpg"	""	1	"eyes"	NA	1	121	174	1	0	2
3	38	"C:\Hannah's FYP\White39_smi.jpg"	""	2	"eyes"	NA	2	222	497	2	0	2
3	39	"C:\Hannah's FYP\White16_smi.jpg"	""	2	"eyes"	NA	1	221	525	1	0	2
3	40	"C:\Hannah's FYP\Black46_smi.jpg"	""	1	"nose"	NA	2	132	257	2	0	2
3	41	"C:\Hannah's FYP\Black33_smi.jpg"	""	1	"eyes"	NA	2	122	199	2	0	2
3	42	"C:\Hannah's FYP\Black13_smi.jpg"	""	1	"eyes"	NA	1	121	360	2	1	2
3	43	"C:\Hannah's FYP\White7_smi.jpg"	""	2	"forehead"	NA	1	211	243	1	0	2
3	44	"C:\Hannah's FYP\White15_smi.jpg"	""	2	"eyes"	NA	1	221	203	1	0	2
3	45	"C:\Hannah's FYP\White26_smi.jpg"	""	2	"forehead"	NA	2	212	260	2	0	2
3	46	"C:\Hannah's FYP\Black25_smi.jpg"	""	1	"forehead"	NA	2	112	363	1	1	2
3	47	"C:\Hannah's FYP\White22_smi.jpg"	""	2	"nose"	NA	1	231	333	2	1	2
3	48	"C:\Hannah's FYP\White47_smi.jpg"	""	2	"nose"	NA	2	232	272	2	0	2
3	49	"C:\Hannah's FYP\White29_smi.jpg"	""	2	"forehead"	NA	2	212	326	2	0	2
3	50	"C:\Hannah's FYP\White8_smi.jpg"	""	2	"forehead"	NA	1	211	187	1	0	2
3	51	"C:\Hannah's FYP\White13_smi.jpg"	""	2	"eyes"	NA	1	221	420	1	0	2
3	52	"C:\Hannah's FYP\Black3_smi.jpg"	""	1	"forehead"	NA	1	111	420	2	1	2
3	53	"C:\Hannah's FYP\Black43_smi.jpg"	""	1	"nose"	NA	2	132	276	2	0	2
3	54	"C:\Hannah's FYP\White35_smi.jpg"	""	2	"eyes"	NA	2	222	450	1	1	2
3	55	"C:\Hannah's FYP\Black2_smi.jpg"	""	1	"forehead"	NA	1	111	336	1	0	2
3	56	"C:\Hannah's FYP\Black27_smi.jpg"	""	1	"forehead"	NA	2	112	451	2	0	2
3	57	"C:\Hannah's FYP\White18_smi.jpg"	""	2	"nose"	NA	1	231	193	2	1	2
3	58	"C:\Hannah's FYP\Black21_smi.jpg"	""	1	"nose"	NA	1	131	531	1	0	2
3	59	"C:\Hannah's FYP\Black26_smi.jpg"	""	1	"forehead"	NA	2	112	382	2	0	2
3	60	"C:\Hannah's FYP\White28_smi.jpg"	""	2	"forehead"	NA	2	212	449	2	0	2
3	61	"C:\Hannah's FYP\White36_smi.jpg"	""	2	"eyes"	NA	2	222	536	2	0	2
3	62	"C:\Hannah's FYP\White27_smi.jpg"	""	2	"forehead"	NA	2	212	347	2	0	2
3	63	"C:\Hannah's FYP\Black18_smi.jpg"	""	1	"nose"	NA	1	131	470	1	0	2
3	64	"C:\Hannah's FYP\Black44_smi.jpg"	""	1	"nose"	NA	2	132	163	1	1	2
3	65	"C:\Hannah's FYP\Black30_smi.jpg"	""	1	"forehead"	NA	2	112	342	2	0	2
3	66	"C:\Hannah's FYP\Black45_smi.jpg"	""	1	"nose"	NA	2	132	233	2	0	2
3	67	"C:\Hannah's FYP\Black29_smi.jpg"	""	1	"forehead"	NA	2	112	370	2	0	2
3	68	"C:\Hannah's FYP\White9_smi.jpg"	""	2	"eyes"	NA	1	221	435	2	1	2
3	69	"C:\Hannah's FYP\White24_smi.jpg"	""	2	"nose"	NA	1	231	474	2	1	2
3	70	"C:\Hannah's FYP\White38_smi.jpg"	""	2	"eyes"	NA	2	222	336	2	0	2
3	71	"C:\Hannah's FYP\White2_smi.jpg"	""	2	"forehead"	NA	1	211	843	1	0	2
3	72	"C:\Hannah's FYP\Black31_smi.jpg"	""	1	"forehead"	NA	2	112	313	2	0	2
3	73	"C:\Hannah's FYP\Black19_smi.jpg"	""	1	"nose"	NA	1	131	421	1	0	2
3	74	"C:\Hannah's FYP\Black5_smi.jpg"	""	1	"forehead"	NA	1	111	509	2	1	2
3	75	"C:\Hannah's FYP\Black41_smi.jpg"	""	1	"nose"	NA	2	132	201	2	0	2
3	76	"C:\Hannah's FYP\Black8_smi.jpg"	""	1	"forehead"	NA	1	111	714	2	1	2
3	77	"C:\Hannah's FYP\Black16_smi.jpg"	""	1	"eyes"	NA	1	121	413	1	0	2
3	78	"C:\Hannah's FYP\White37_smi.jpg"	""	2	"eyes"	NA	2	222	374	2	0	2
3	79	"C:\Hannah's FYP\Black20_smi.jpg"	""	1	"nose"	NA	1	131	407	2	1	2
3	80	"C:\Hannah's FYP\Black6_smi.jpg"	""	1	"forehead"	NA	1	111	568	2	1	2
3	81	"C:\Hannah's FYP\Black22_smi.jpg"	""	1	"nose"	NA	1	131	832	1	0	2
3	82	"C:\Hannah's FYP\White43_smi.jpg"	""	2	"nose"	NA	2	232	496	2	0	2
3	83	"C:\Hannah's FYP\White14_smi.jpg"	""	2	"eyes"	NA	1	221	244	1	0	2
3	84	"C:\Hannah's FYP\Black39_smi.jpg"	""	1	"eyes"	NA	2	122	356	2	0	2
3	85	"C:\Hannah's FYP\White19_smi.jpg"	""	2	"nose"	NA	1	231	222	1	0	2
3	86	"C:\Hannah's FYP\Black35_smi.jpg"	""	1	"eyes"	NA	2	122	375	1	1	2
3	87	"C:\Hannah's FYP\White10_smi.jpg"	""	2	"eyes"	NA	1	221	329	1	0	2
3	88	"C:\Hannah's FYP\Black32_smi.jpg"	""	1	"forehead"	NA	2	112	141	2	0	2
3	89	"C:\Hannah's FYP\White25_smi.jpg"	""	2	"forehead"	NA	2	212	225	2	0	2
3	90	"C:\Hannah's FYP\White40_smi.jpg"	""	2	"eyes"	NA	2	222	449	2	0	2
3	91	"C:\Hannah's FYP\White31_smi.jpg"	""	2	"forehead"	NA	2	212	424	2	0	2
3	92	"C:\Hannah's FYP\Black1_smi.jpg"	""	1	"forehead"	NA	1	111	360	2	1	2
3	93	"C:\Hannah's FYP\White48_smi.jpg"	""	2	"nose"	NA	2	232	427	2	0	2
3	94	"C:\Hannah's FYP\Black40_smi.jpg"	""	1	"eyes"	NA	2	122	210	1	1	2
3	95	"C:\Hannah's FYP\Black37_smi.jpg"	""	1	"eyes"	NA	2	122	363	2	0	2
3	96	"C:\Hannah's FYP\White20_smi.jpg"	""	2	"nose"	NA	1	231	205	2	1	2
3	1	"C:\Hannah's FYP\White26_smi.jpg"	""	2	"forehead"	NA	2	212	5122	2	0	3
3	2	"C:\Hannah's FYP\Black48_smi.jpg"	""	1	"nose"	NA	2	132	1865	2	0	3
3	3	"C:\Hannah's FYP\White7_smi.jpg"	""	2	"forehead"	NA	1	211	756	2	1	3
3	4	"C:\Hannah's FYP\Black5_smi.jpg"	""	1	"forehead"	NA	1	111	1270	2	1	3
3	5	"C:\Hannah's FYP\Black4_smi.jpg"	""	1	"forehead"	NA	1	111	505	2	1	3
3	6	"C:\Hannah's FYP\Black40_smi.jpg"	""	1	"eyes"	NA	2	122	990	1	1	3
3	7	"C:\Hannah's FYP\Black20_smi.jpg"	""	1	"nose"	NA	1	131	518	2	1	3
3	8	"C:\Hannah's FYP\White31_smi.jpg"	""	2	"forehead"	NA	2	212	482	1	1	3
3	9	"C:\Hannah's FYP\Black45_smi.jpg"	""	1	"nose"	NA	2	132	1288	1	1	3
3	10	"C:\Hannah's FYP\White8_smi.jpg"	""	2	"forehead"	NA	1	211	843	2	1	3
3	11	"C:\Hannah's FYP\Black11_smi.jpg"	""	1	"eyes"	NA	1	121	745	2	1	3
3	12	"C:\Hannah's FYP\White45_smi.jpg"	""	2	"nose"	NA	2	232	411	1	1	3
3	13	"C:\Hannah's FYP\Black7_smi.jpg"	""	1	"forehead"	NA	1	111	636	2	1	3
3	14	"C:\Hannah's FYP\Black29_smi.jpg"	""	1	"forehead"	NA	2	112	707	2	0	3
3	15	"C:\Hannah's FYP\Black14_smi.jpg"	""	1	"eyes"	NA	1	121	367	2	1	3
3	16	"C:\Hannah's FYP\Black1_smi.jpg"	""	1	"forehead"	NA	1	111	1306	1	0	3
3	17	"C:\Hannah's FYP\Black8_smi.jpg"	""	1	"forehead"	NA	1	111	740	2	1	3
3	18	"C:\Hannah's FYP\White34_smi.jpg"	""	2	"eyes"	NA	2	222	694	2	0	3
3	19	"C:\Hannah's FYP\White11_smi.jpg"	""	2	"eyes"	NA	1	221	411	1	0	3
3	20	"C:\Hannah's FYP\Black36_smi.jpg"	""	1	"eyes"	NA	2	122	5212	2	0	3
3	21	"C:\Hannah's FYP\Black24_smi.jpg"	""	1	"nose"	NA	1	131	151	2	1	3
3	22	"C:\Hannah's FYP\Black42_smi.jpg"	""	1	"nose"	NA	2	132	379	2	0	3
3	23	"C:\Hannah's FYP\Black37_smi.jpg"	""	1	"eyes"	NA	2	122	541	2	0	3
3	24	"C:\Hannah's FYP\Black17_smi.jpg"	""	1	"nose"	NA	1	131	1361	2	1	3
3	25	"C:\Hannah's FYP\White33_smi.jpg"	""	2	"eyes"	NA	2	222	2417	2	0	3
3	26	"C:\Hannah's FYP\White18_smi.jpg"	""	2	"nose"	NA	1	231	44	1	0	3
3	27	"C:\Hannah's FYP\White4_smi.jpg"	""	2	"forehead"	NA	1	211	692	1	0	3
3	28	"C:\Hannah's FYP\Black38_smi.jpg"	""	1	"eyes"	NA	2	122	617	1	1	3
3	29	"C:\Hannah's FYP\White1_smi.jpg"	""	2	"forehead"	NA	1	211	2841	2	1	3
3	30	"C:\Hannah's FYP\White30_smi.jpg"	""	2	"forehead"	NA	2	212	1233	1	1	3
3	31	"C:\Hannah's FYP\Black13_smi.jpg"	""	1	"eyes"	NA	1	121	967	2	1	3
3	32	"C:\Hannah's FYP\Black25_smi.jpg"	""	1	"forehead"	NA	2	112	2136	2	0	3
3	33	"C:\Hannah's FYP\White5_smi.jpg"	""	2	"forehead"	NA	1	211	967	2	1	3
3	34	"C:\Hannah's FYP\Black27_smi.jpg"	""	1	"forehead"	NA	2	112	1440	2	0	3
3	35	"C:\Hannah's FYP\White35_smi.jpg"	""	2	"eyes"	NA	2	222	917	1	1	3
3	36	"C:\Hannah's FYP\White43_smi.jpg"	""	2	"nose"	NA	2	232	6256	2	0	3
3	37	"C:\Hannah's FYP\Black39_smi.jpg"	""	1	"eyes"	NA	2	122	918	1	1	3
3	38	"C:\Hannah's FYP\Black10_smi.jpg"	""	1	"eyes"	NA	1	121	545	2	1	3
3	39	"C:\Hannah's FYP\Black35_smi.jpg"	""	1	"eyes"	NA	2	122	508	2	0	3
3	40	"C:\Hannah's FYP\Black43_smi.jpg"	""	1	"nose"	NA	2	132	1137	2	0	3
3	41	"C:\Hannah's FYP\White27_smi.jpg"	""	2	"forehead"	NA	2	212	698	2	0	3
3	42	"C:\Hannah's FYP\White20_smi.jpg"	""	2	"nose"	NA	1	231	943	1	0	3
3	43	"C:\Hannah's FYP\Black9_smi.jpg"	""	1	"eyes"	NA	1	121	769	2	1	3
3	44	"C:\Hannah's FYP\White28_smi.jpg"	""	2	"forehead"	NA	2	212	659	2	0	3
3	45	"C:\Hannah's FYP\Black30_smi.jpg"	""	1	"forehead"	NA	2	112	553	2	0	3
3	46	"C:\Hannah's FYP\Black23_smi.jpg"	""	1	"nose"	NA	1	131	556	2	1	3
3	47	"C:\Hannah's FYP\White23_smi.jpg"	""	2	"nose"	NA	1	231	150	2	1	3
3	48	"C:\Hannah's FYP\White37_smi.jpg"	""	2	"eyes"	NA	2	222	1178	1	1	3
3	49	"C:\Hannah's FYP\Black44_smi.jpg"	""	1	"nose"	NA	2	132	1442	1	1	3
3	50	"C:\Hannah's FYP\Black46_smi.jpg"	""	1	"nose"	NA	2	132	1007	1	1	3
3	51	"C:\Hannah's FYP\White48_smi.jpg"	""	2	"nose"	NA	2	232	1342	2	0	3
3	52	"C:\Hannah's FYP\White25_smi.jpg"	""	2	"forehead"	NA	2	212	198	1	1	3
3	53	"C:\Hannah's FYP\White32_smi.jpg"	""	2	"forehead"	NA	2	212	377	2	0	3
3	54	"C:\Hannah's FYP\White41_smi.jpg"	""	2	"nose"	NA	2	232	27	1	1	3
3	55	"C:\Hannah's FYP\Black22_smi.jpg"	""	1	"nose"	NA	1	131	5	2	1	3
3	56	"C:\Hannah's FYP\White16_smi.jpg"	""	2	"eyes"	NA	1	221	279	2	1	3
3	57	"C:\Hannah's FYP\Black34_smi.jpg"	""	1	"eyes"	NA	2	122	405	2	0	3
3	58	"C:\Hannah's FYP\Black18_smi.jpg"	""	1	"nose"	NA	1	131	1518	2	1	3
3	59	"C:\Hannah's FYP\Black26_smi.jpg"	""	1	"forehead"	NA	2	112	128	1	1	3
3	60	"C:\Hannah's FYP\White46_smi.jpg"	""	2	"nose"	NA	2	232	21	2	0	3
3	61	"C:\Hannah's FYP\White39_smi.jpg"	""	2	"eyes"	NA	2	222	2950	2	0	3
3	62	"C:\Hannah's FYP\Black2_smi.jpg"	""	1	"forehead"	NA	1	111	1026	1	0	3
3	63	"C:\Hannah's FYP\White44_smi.jpg"	""	2	"nose"	NA	2	232	673	2	0	3
3	64	"C:\Hannah's FYP\Black6_smi.jpg"	""	1	"forehead"	NA	1	111	742	2	1	3
3	65	"C:\Hannah's FYP\Black32_smi.jpg"	""	1	"forehead"	NA	2	112	1009	1	1	3
3	66	"C:\Hannah's FYP\White15_smi.jpg"	""	2	"eyes"	NA	1	221	4240	2	1	3
3	67	"C:\Hannah's FYP\Black16_smi.jpg"	""	1	"eyes"	NA	1	121	701	1	0	3
3	68	"C:\Hannah's FYP\White36_smi.jpg"	""	2	"eyes"	NA	2	222	616	1	1	3
3	69	"C:\Hannah's FYP\White24_smi.jpg"	""	2	"nose"	NA	1	231	1449	2	1	3
3	70	"C:\Hannah's FYP\Black33_smi.jpg"	""	1	"eyes"	NA	2	122	845	2	0	3
3	71	"C:\Hannah's FYP\White3_smi.jpg"	""	2	"forehead"	NA	1	211	452	2	1	3
3	72	"C:\Hannah's FYP\White47_smi.jpg"	""	2	"nose"	NA	2	232	770	1	1	3
3	73	"C:\Hannah's FYP\White9_smi.jpg"	""	2	"eyes"	NA	1	221	788	1	0	3
3	74	"C:\Hannah's FYP\Black31_smi.jpg"	""	1	"forehead"	NA	2	112	796	2	0	3
3	75	"C:\Hannah's FYP\White38_smi.jpg"	""	2	"eyes"	NA	2	222	165	1	1	3
3	76	"C:\Hannah's FYP\White19_smi.jpg"	""	2	"nose"	NA	1	231	304	2	1	3
3	77	"C:\Hannah's FYP\Black19_smi.jpg"	""	1	"nose"	NA	1	131	285	2	1	3
3	78	"C:\Hannah's FYP\Black12_smi.jpg"	""	1	"eyes"	NA	1	121	59	1	0	3
3	79	"C:\Hannah's FYP\White2_smi.jpg"	""	2	"forehead"	NA	1	211	427	2	1	3
3	80	"C:\Hannah's FYP\Black47_smi.jpg"	""	1	"nose"	NA	2	132	588	1	1	3
3	81	"C:\Hannah's FYP\White17_smi.jpg"	""	2	"nose"	NA	1	231	341	2	1	3
3	82	"C:\Hannah's FYP\White42_smi.jpg"	""	2	"nose"	NA	2	232	640	2	0	3
3	83	"C:\Hannah's FYP\White14_smi.jpg"	""	2	"eyes"	NA	1	221	367	1	0	3
3	84	"C:\Hannah's FYP\Black21_smi.jpg"	""	1	"nose"	NA	1	131	546	1	0	3
3	85	"C:\Hannah's FYP\Black28_smi.jpg"	""	1	"forehead"	NA	2	112	765	1	1	3
3	86	"C:\Hannah's FYP\White22_smi.jpg"	""	2	"nose"	NA	1	231	807	2	1	3
3	87	"C:\Hannah's FYP\White40_smi.jpg"	""	2	"eyes"	NA	2	222	1494	2	0	3
3	88	"C:\Hannah's FYP\White12_smi.jpg"	""	2	"eyes"	NA	1	221	833	2	1	3
3	89	"C:\Hannah's FYP\White21_smi.jpg"	""	2	"nose"	NA	1	231	776	2	1	3
3	90	"C:\Hannah's FYP\White29_smi.jpg"	""	2	"forehead"	NA	2	212	497	2	0	3
3	91	"C:\Hannah's FYP\Black41_smi.jpg"	""	1	"nose"	NA	2	132	574	2	0	3
3	92	"C:\Hannah's FYP\Black3_smi.jpg"	""	1	"forehead"	NA	1	111	488	2	1	3
3	93	"C:\Hannah's FYP\White13_smi.jpg"	""	2	"eyes"	NA	1	221	453	2	1	3
3	94	"C:\Hannah's FYP\White10_smi.jpg"	""	2	"eyes"	NA	1	221	380	2	1	3
3	95	"C:\Hannah's FYP\Black15_smi.jpg"	""	1	"eyes"	NA	1	121	647	2	1	3
3	96	"C:\Hannah's FYP\White6_smi.jpg"	""	2	"forehead"	NA	1	211	37	1	0	3
3	1	"C:\Hannah's FYP\White46_smi.jpg"	""	2	"nose"	NA	2	232	16005	1	1	4
3	2	"C:\Hannah's FYP\Black22_smi.jpg"	""	1	"nose"	NA	1	131	744	1	0	4
3	3	"C:\Hannah's FYP\Black21_smi.jpg"	""	1	"nose"	NA	1	131	449	1	0	4
3	4	"C:\Hannah's FYP\White17_smi.jpg"	""	2	"nose"	NA	1	231	905	1	0	4
3	5	"C:\Hannah's FYP\Black20_smi.jpg"	""	1	"nose"	NA	1	131	1259	1	0	4
3	6	"C:\Hannah's FYP\Black18_smi.jpg"	""	1	"nose"	NA	1	131	950	2	1	4
3	7	"C:\Hannah's FYP\White7_smi.jpg"	""	2	"forehead"	NA	1	211	896	2	1	4
3	8	"C:\Hannah's FYP\White18_smi.jpg"	""	2	"nose"	NA	1	231	1219	1	0	4
3	9	"C:\Hannah's FYP\Black45_smi.jpg"	""	1	"nose"	NA	2	132	799	1	1	4
3	10	"C:\Hannah's FYP\White28_smi.jpg"	""	2	"forehead"	NA	2	212	1065	2	0	4
3	11	"C:\Hannah's FYP\White48_smi.jpg"	""	2	"nose"	NA	2	232	1390	2	0	4
3	12	"C:\Hannah's FYP\Black32_smi.jpg"	""	1	"forehead"	NA	2	112	1020	1	1	4
3	13	"C:\Hannah's FYP\White6_smi.jpg"	""	2	"forehead"	NA	1	211	2035	2	1	4
3	14	"C:\Hannah's FYP\Black41_smi.jpg"	""	1	"nose"	NA	2	132	1589	2	0	4
3	15	"C:\Hannah's FYP\White11_smi.jpg"	""	2	"eyes"	NA	1	221	1331	2	1	4
3	16	"C:\Hannah's FYP\White8_smi.jpg"	""	2	"forehead"	NA	1	211	1004	1	0	4
3	17	"C:\Hannah's FYP\White44_smi.jpg"	""	2	"nose"	NA	2	232	411	2	0	4
3	18	"C:\Hannah's FYP\Black33_smi.jpg"	""	1	"eyes"	NA	2	122	947	1	1	4
3	19	"C:\Hannah's FYP\Black43_smi.jpg"	""	1	"nose"	NA	2	132	604	2	0	4
3	20	"C:\Hannah's FYP\Black1_smi.jpg"	""	1	"forehead"	NA	1	111	1139	2	1	4
3	21	"C:\Hannah's FYP\White10_smi.jpg"	""	2	"eyes"	NA	1	221	725	1	0	4
3	22	"C:\Hannah's FYP\Black39_smi.jpg"	""	1	"eyes"	NA	2	122	695	1	1	4
3	23	"C:\Hannah's FYP\White35_smi.jpg"	""	2	"eyes"	NA	2	222	763	2	0	4
3	24	"C:\Hannah's FYP\Black12_smi.jpg"	""	1	"eyes"	NA	1	121	397	1	0	4
3	25	"C:\Hannah's FYP\White5_smi.jpg"	""	2	"forehead"	NA	1	211	902	1	0	4
3	26	"C:\Hannah's FYP\White2_smi.jpg"	""	2	"forehead"	NA	1	211	818	1	0	4
3	27	"C:\Hannah's FYP\Black40_smi.jpg"	""	1	"eyes"	NA	2	122	816	2	0	4
3	28	"C:\Hannah's FYP\Black28_smi.jpg"	""	1	"forehead"	NA	2	112	2503	1	1	4
3	29	"C:\Hannah's FYP\White26_smi.jpg"	""	2	"forehead"	NA	2	212	1141	2	0	4
3	30	"C:\Hannah's FYP\Black47_smi.jpg"	""	1	"nose"	NA	2	132	486	1	1	4
3	31	"C:\Hannah's FYP\Black34_smi.jpg"	""	1	"eyes"	NA	2	122	555	2	0	4
3	32	"C:\Hannah's FYP\White42_smi.jpg"	""	2	"nose"	NA	2	232	1749	2	0	4
3	33	"C:\Hannah's FYP\White27_smi.jpg"	""	2	"forehead"	NA	2	212	2149	2	0	4
3	34	"C:\Hannah's FYP\White32_smi.jpg"	""	2	"forehead"	NA	2	212	1362	2	0	4
3	35	"C:\Hannah's FYP\Black38_smi.jpg"	""	1	"eyes"	NA	2	122	464	1	1	4
3	36	"C:\Hannah's FYP\White45_smi.jpg"	""	2	"nose"	NA	2	232	463	2	0	4
3	37	"C:\Hannah's FYP\Black30_smi.jpg"	""	1	"forehead"	NA	2	112	1173	1	1	4
3	38	"C:\Hannah's FYP\Black8_smi.jpg"	""	1	"forehead"	NA	1	111	1781	1	0	4
3	39	"C:\Hannah's FYP\Black11_smi.jpg"	""	1	"eyes"	NA	1	121	691	1	0	4
3	40	"C:\Hannah's FYP\White37_smi.jpg"	""	2	"eyes"	NA	2	222	431	2	0	4
3	41	"C:\Hannah's FYP\Black31_smi.jpg"	""	1	"forehead"	NA	2	112	607	2	0	4
3	42	"C:\Hannah's FYP\Black27_smi.jpg"	""	1	"forehead"	NA	2	112	950	2	0	4
3	43	"C:\Hannah's FYP\White33_smi.jpg"	""	2	"eyes"	NA	2	222	752	2	0	4
3	44	"C:\Hannah's FYP\White13_smi.jpg"	""	2	"eyes"	NA	1	221	1778	2	1	4
3	45	"C:\Hannah's FYP\White30_smi.jpg"	""	2	"forehead"	NA	2	212	440	2	0	4
3	46	"C:\Hannah's FYP\Black16_smi.jpg"	""	1	"eyes"	NA	1	121	719	2	1	4
3	47	"C:\Hannah's FYP\White19_smi.jpg"	""	2	"nose"	NA	1	231	1651	2	1	4
3	48	"C:\Hannah's FYP\Black14_smi.jpg"	""	1	"eyes"	NA	1	121	1471	1	0	4
3	49	"C:\Hannah's FYP\White39_smi.jpg"	""	2	"eyes"	NA	2	222	394	2	0	4
3	50	"C:\Hannah's FYP\Black9_smi.jpg"	""	1	"eyes"	NA	1	121	1162	1	0	4
3	51	"C:\Hannah's FYP\Black24_smi.jpg"	""	1	"nose"	NA	1	131	690	1	0	4
3	52	"C:\Hannah's FYP\White47_smi.jpg"	""	2	"nose"	NA	2	232	831	2	0	4
3	53	"C:\Hannah's FYP\Black4_smi.jpg"	""	1	"forehead"	NA	1	111	1037	1	0	4
3	54	"C:\Hannah's FYP\Black35_smi.jpg"	""	1	"eyes"	NA	2	122	459	2	0	4
3	55	"C:\Hannah's FYP\White1_smi.jpg"	""	2	"forehead"	NA	1	211	906	2	1	4
3	56	"C:\Hannah's FYP\Black17_smi.jpg"	""	1	"nose"	NA	1	131	357	2	1	4
3	57	"C:\Hannah's FYP\White14_smi.jpg"	""	2	"eyes"	NA	1	221	888	1	0	4
3	58	"C:\Hannah's FYP\White24_smi.jpg"	""	2	"nose"	NA	1	231	636	2	1	4
3	59	"C:\Hannah's FYP\White15_smi.jpg"	""	2	"eyes"	NA	1	221	411	2	1	4
3	60	"C:\Hannah's FYP\White38_smi.jpg"	""	2	"eyes"	NA	2	222	348	2	0	4
3	61	"C:\Hannah's FYP\White41_smi.jpg"	""	2	"nose"	NA	2	232	719	2	0	4
3	62	"C:\Hannah's FYP\Black29_smi.jpg"	""	1	"forehead"	NA	2	112	769	2	0	4
3	63	"C:\Hannah's FYP\Black26_smi.jpg"	""	1	"forehead"	NA	2	112	546	2	0	4
3	64	"C:\Hannah's FYP\Black19_smi.jpg"	""	1	"nose"	NA	1	131	412	1	0	4
3	65	"C:\Hannah's FYP\Black10_smi.jpg"	""	1	"eyes"	NA	1	121	540	1	0	4
3	66	"C:\Hannah's FYP\White36_smi.jpg"	""	2	"eyes"	NA	2	222	343	2	0	4
3	67	"C:\Hannah's FYP\White21_smi.jpg"	""	2	"nose"	NA	1	231	531	2	1	4
3	68	"C:\Hannah's FYP\Black37_smi.jpg"	""	1	"eyes"	NA	2	122	1517	2	0	4
3	69	"C:\Hannah's FYP\Black15_smi.jpg"	""	1	"eyes"	NA	1	121	325	1	0	4
3	70	"C:\Hannah's FYP\Black6_smi.jpg"	""	1	"forehead"	NA	1	111	785	1	0	4
3	71	"C:\Hannah's FYP\Black23_smi.jpg"	""	1	"nose"	NA	1	131	906	1	0	4
3	72	"C:\Hannah's FYP\Black46_smi.jpg"	""	1	"nose"	NA	2	132	692	2	0	4
3	73	"C:\Hannah's FYP\White9_smi.jpg"	""	2	"eyes"	NA	1	221	825	1	0	4
3	74	"C:\Hannah's FYP\White29_smi.jpg"	""	2	"forehead"	NA	2	212	343	2	0	4
3	75	"C:\Hannah's FYP\White40_smi.jpg"	""	2	"eyes"	NA	2	222	467	2	0	4
3	76	"C:\Hannah's FYP\Black44_smi.jpg"	""	1	"nose"	NA	2	132	376	1	1	4
3	77	"C:\Hannah's FYP\White25_smi.jpg"	""	2	"forehead"	NA	2	212	410	2	0	4
3	78	"C:\Hannah's FYP\Black7_smi.jpg"	""	1	"forehead"	NA	1	111	730	1	0	4
3	79	"C:\Hannah's FYP\White4_smi.jpg"	""	2	"forehead"	NA	1	211	310	2	1	4
3	80	"C:\Hannah's FYP\White12_smi.jpg"	""	2	"eyes"	NA	1	221	1011	2	1	4
3	81	"C:\Hannah's FYP\Black42_smi.jpg"	""	1	"nose"	NA	2	132	752	1	1	4
3	82	"C:\Hannah's FYP\Black25_smi.jpg"	""	1	"forehead"	NA	2	112	354	1	1	4
3	83	"C:\Hannah's FYP\Black48_smi.jpg"	""	1	"nose"	NA	2	132	517	1	1	4
3	84	"C:\Hannah's FYP\White3_smi.jpg"	""	2	"forehead"	NA	1	211	257	2	1	4
3	85	"C:\Hannah's FYP\Black5_smi.jpg"	""	1	"forehead"	NA	1	111	631	2	1	4
3	86	"C:\Hannah's FYP\White22_smi.jpg"	""	2	"nose"	NA	1	231	743	1	0	4
3	87	"C:\Hannah's FYP\Black2_smi.jpg"	""	1	"forehead"	NA	1	111	504	2	1	4
3	88	"C:\Hannah's FYP\White16_smi.jpg"	""	2	"eyes"	NA	1	221	853	2	1	4
3	89	"C:\Hannah's FYP\Black3_smi.jpg"	""	1	"forehead"	NA	1	111	394	1	0	4
3	90	"C:\Hannah's FYP\Black36_smi.jpg"	""	1	"eyes"	NA	2	122	682	2	0	4
3	91	"C:\Hannah's FYP\Black13_smi.jpg"	""	1	"eyes"	NA	1	121	703	2	1	4
3	92	"C:\Hannah's FYP\White31_smi.jpg"	""	2	"forehead"	NA	2	212	579	2	0	4
3	93	"C:\Hannah's FYP\White43_smi.jpg"	""	2	"nose"	NA	2	232	413	2	0	4
3	94	"C:\Hannah's FYP\White20_smi.jpg"	""	2	"nose"	NA	1	231	558	1	0	4
3	95	"C:\Hannah's FYP\White23_smi.jpg"	""	2	"nose"	NA	1	231	576	1	0	4
3	96	"C:\Hannah's FYP\White34_smi.jpg"	""	2	"eyes"	NA	2	222	586	1	1	4
3	1	"C:\Hannah's FYP\White11_smi.jpg"	""	2	"eyes"	NA	1	221	263	1	0	5
3	2	"C:\Hannah's FYP\Black40_smi.jpg"	""	1	"eyes"	NA	2	122	1199	2	0	5
3	3	"C:\Hannah's FYP\White25_smi.jpg"	""	2	"forehead"	NA	2	212	342	2	0	5
3	4	"C:\Hannah's FYP\White20_smi.jpg"	""	2	"nose"	NA	1	231	930	2	1	5
3	5	"C:\Hannah's FYP\Black46_smi.jpg"	""	1	"nose"	NA	2	132	741	2	0	5
3	6	"C:\Hannah's FYP\White38_smi.jpg"	""	2	"eyes"	NA	2	222	687	2	0	5
3	7	"C:\Hannah's FYP\White6_smi.jpg"	""	2	"forehead"	NA	1	211	316	2	1	5
3	8	"C:\Hannah's FYP\White44_smi.jpg"	""	2	"nose"	NA	2	232	785	2	0	5
3	9	"C:\Hannah's FYP\Black41_smi.jpg"	""	1	"nose"	NA	2	132	281	2	0	5
3	10	"C:\Hannah's FYP\Black22_smi.jpg"	""	1	"nose"	NA	1	131	704	2	1	5
3	11	"C:\Hannah's FYP\Black19_smi.jpg"	""	1	"nose"	NA	1	131	500	2	1	5
3	12	"C:\Hannah's FYP\White31_smi.jpg"	""	2	"forehead"	NA	2	212	665	2	0	5
3	13	"C:\Hannah's FYP\Black29_smi.jpg"	""	1	"forehead"	NA	2	112	263	2	0	5
3	14	"C:\Hannah's FYP\White43_smi.jpg"	""	2	"nose"	NA	2	232	694	2	0	5
3	15	"C:\Hannah's FYP\White21_smi.jpg"	""	2	"nose"	NA	1	231	275	2	1	5
3	16	"C:\Hannah's FYP\White29_smi.jpg"	""	2	"forehead"	NA	2	212	226	2	0	5
3	17	"C:\Hannah's FYP\Black11_smi.jpg"	""	1	"eyes"	NA	1	121	363	1	0	5
3	18	"C:\Hannah's FYP\White10_smi.jpg"	""	2	"eyes"	NA	1	221	406	2	1	5
3	19	"C:\Hannah's FYP\White17_smi.jpg"	""	2	"nose"	NA	1	231	367	1	0	5
3	20	"C:\Hannah's FYP\White1_smi.jpg"	""	2	"forehead"	NA	1	211	1089	2	1	5
3	21	"C:\Hannah's FYP\White45_smi.jpg"	""	2	"nose"	NA	2	232	341	2	0	5
3	22	"C:\Hannah's FYP\Black30_smi.jpg"	""	1	"forehead"	NA	2	112	528	2	0	5
3	23	"C:\Hannah's FYP\White19_smi.jpg"	""	2	"nose"	NA	1	231	444	1	0	5
3	24	"C:\Hannah's FYP\Black16_smi.jpg"	""	1	"eyes"	NA	1	121	1476	2	1	5
3	25	"C:\Hannah's FYP\Black21_smi.jpg"	""	1	"nose"	NA	1	131	335	1	0	5
3	26	"C:\Hannah's FYP\Black9_smi.jpg"	""	1	"eyes"	NA	1	121	627	1	0	5
3	27	"C:\Hannah's FYP\White5_smi.jpg"	""	2	"forehead"	NA	1	211	474	1	0	5
3	28	"C:\Hannah's FYP\White23_smi.jpg"	""	2	"nose"	NA	1	231	344	1	0	5
3	29	"C:\Hannah's FYP\Black20_smi.jpg"	""	1	"nose"	NA	1	131	244	1	0	5
3	30	"C:\Hannah's FYP\Black17_smi.jpg"	""	1	"nose"	NA	1	131	660	2	1	5
3	31	"C:\Hannah's FYP\White2_smi.jpg"	""	2	"forehead"	NA	1	211	258	1	0	5
3	32	"C:\Hannah's FYP\White12_smi.jpg"	""	2	"eyes"	NA	1	221	418	1	0	5
3	33	"C:\Hannah's FYP\Black6_smi.jpg"	""	1	"forehead"	NA	1	111	1098	1	0	5
3	34	"C:\Hannah's FYP\Black31_smi.jpg"	""	1	"forehead"	NA	2	112	262	2	0	5
3	35	"C:\Hannah's FYP\Black47_smi.jpg"	""	1	"nose"	NA	2	132	285	1	1	5
3	36	"C:\Hannah's FYP\Black8_smi.jpg"	""	1	"forehead"	NA	1	111	235	1	0	5
3	37	"C:\Hannah's FYP\White40_smi.jpg"	""	2	"eyes"	NA	2	222	451	2	0	5
3	38	"C:\Hannah's FYP\White28_smi.jpg"	""	2	"forehead"	NA	2	212	283	1	1	5
3	39	"C:\Hannah's FYP\Black37_smi.jpg"	""	1	"eyes"	NA	2	122	529	2	0	5
3	40	"C:\Hannah's FYP\Black18_smi.jpg"	""	1	"nose"	NA	1	131	429	2	1	5
3	41	"C:\Hannah's FYP\White30_smi.jpg"	""	2	"forehead"	NA	2	212	1029	2	0	5
3	42	"C:\Hannah's FYP\Black12_smi.jpg"	""	1	"eyes"	NA	1	121	660	1	0	5
3	43	"C:\Hannah's FYP\White46_smi.jpg"	""	2	"nose"	NA	2	232	290	2	0	5
3	44	"C:\Hannah's FYP\Black2_smi.jpg"	""	1	"forehead"	NA	1	111	552	2	1	5
3	45	"C:\Hannah's FYP\Black5_smi.jpg"	""	1	"forehead"	NA	1	111	250	2	1	5
3	46	"C:\Hannah's FYP\Black1_smi.jpg"	""	1	"forehead"	NA	1	111	226	2	1	5
3	47	"C:\Hannah's FYP\White35_smi.jpg"	""	2	"eyes"	NA	2	222	4258	2	0	5
3	48	"C:\Hannah's FYP\Black13_smi.jpg"	""	1	"eyes"	NA	1	121	1007	1	0	5
3	49	"C:\Hannah's FYP\Black28_smi.jpg"	""	1	"forehead"	NA	2	112	430	2	0	5
3	50	"C:\Hannah's FYP\Black33_smi.jpg"	""	1	"eyes"	NA	2	122	254	2	0	5
3	51	"C:\Hannah's FYP\Black39_smi.jpg"	""	1	"eyes"	NA	2	122	373	2	0	5
3	52	"C:\Hannah's FYP\Black15_smi.jpg"	""	1	"eyes"	NA	1	121	968	1	0	5
3	53	"C:\Hannah's FYP\White48_smi.jpg"	""	2	"nose"	NA	2	232	393	2	0	5
3	54	"C:\Hannah's FYP\White13_smi.jpg"	""	2	"eyes"	NA	1	221	779	2	1	5
3	55	"C:\Hannah's FYP\White33_smi.jpg"	""	2	"eyes"	NA	2	222	156	2	0	5
3	56	"C:\Hannah's FYP\White42_smi.jpg"	""	2	"nose"	NA	2	232	519	2	0	5
3	57	"C:\Hannah's FYP\White3_smi.jpg"	""	2	"forehead"	NA	1	211	387	2	1	5
3	58	"C:\Hannah's FYP\White16_smi.jpg"	""	2	"eyes"	NA	1	221	893	2	1	5
3	59	"C:\Hannah's FYP\Black4_smi.jpg"	""	1	"forehead"	NA	1	111	1265	1	0	5
3	60	"C:\Hannah's FYP\Black14_smi.jpg"	""	1	"eyes"	NA	1	121	1093	1	0	5
3	61	"C:\Hannah's FYP\White34_smi.jpg"	""	2	"eyes"	NA	2	222	177	2	0	5
3	62	"C:\Hannah's FYP\White32_smi.jpg"	""	2	"forehead"	NA	2	212	292	2	0	5
3	63	"C:\Hannah's FYP\Black44_smi.jpg"	""	1	"nose"	NA	2	132	274	2	0	5
3	64	"C:\Hannah's FYP\White37_smi.jpg"	""	2	"eyes"	NA	2	222	232	2	0	5
3	65	"C:\Hannah's FYP\Black45_smi.jpg"	""	1	"nose"	NA	2	132	225	2	0	5
3	66	"C:\Hannah's FYP\White36_smi.jpg"	""	2	"eyes"	NA	2	222	185	2	0	5
3	67	"C:\Hannah's FYP\Black43_smi.jpg"	""	1	"nose"	NA	2	132	1116	2	0	5
3	68	"C:\Hannah's FYP\Black32_smi.jpg"	""	1	"forehead"	NA	2	112	454	2	0	5
3	69	"C:\Hannah's FYP\White8_smi.jpg"	""	2	"forehead"	NA	1	211	541	1	0	5
3	70	"C:\Hannah's FYP\Black42_smi.jpg"	""	1	"nose"	NA	2	132	456	2	0	5
3	71	"C:\Hannah's FYP\White14_smi.jpg"	""	2	"eyes"	NA	1	221	215	2	1	5
3	72	"C:\Hannah's FYP\Black23_smi.jpg"	""	1	"nose"	NA	1	131	609	2	1	5
3	73	"C:\Hannah's FYP\White22_smi.jpg"	""	2	"nose"	NA	1	231	593	2	1	5
3	74	"C:\Hannah's FYP\Black7_smi.jpg"	""	1	"forehead"	NA	1	111	114	2	1	5
3	75	"C:\Hannah's FYP\Black38_smi.jpg"	""	1	"eyes"	NA	2	122	144	1	1	5
3	76	"C:\Hannah's FYP\White15_smi.jpg"	""	2	"eyes"	NA	1	221	596	2	1	5
3	77	"C:\Hannah's FYP\White41_smi.jpg"	""	2	"nose"	NA	2	232	237	1	1	5
3	78	"C:\Hannah's FYP\White26_smi.jpg"	""	2	"forehead"	NA	2	212	310	2	0	5
3	79	"C:\Hannah's FYP\Black27_smi.jpg"	""	1	"forehead"	NA	2	112	131	1	1	5
3	80	"C:\Hannah's FYP\White47_smi.jpg"	""	2	"nose"	NA	2	232	40	1	1	5
3	81	"C:\Hannah's FYP\White18_smi.jpg"	""	2	"nose"	NA	1	231	1041	2	1	5
3	82	"C:\Hannah's FYP\Black26_smi.jpg"	""	1	"forehead"	NA	2	112	438	2	0	5
3	83	"C:\Hannah's FYP\Black48_smi.jpg"	""	1	"nose"	NA	2	132	1238	2	0	5
3	84	"C:\Hannah's FYP\White9_smi.jpg"	""	2	"eyes"	NA	1	221	115	2	1	5
3	85	"C:\Hannah's FYP\Black36_smi.jpg"	""	1	"eyes"	NA	2	122	585	2	0	5
3	86	"C:\Hannah's FYP\Black35_smi.jpg"	""	1	"eyes"	NA	2	122	3962	2	0	5
3	87	"C:\Hannah's FYP\White27_smi.jpg"	""	2	"forehead"	NA	2	212	474	2	0	5
3	88	"C:\Hannah's FYP\White7_smi.jpg"	""	2	"forehead"	NA	1	211	1552	1	0	5
3	89	"C:\Hannah's FYP\Black24_smi.jpg"	""	1	"nose"	NA	1	131	1416	2	1	5
3	90	"C:\Hannah's FYP\Black25_smi.jpg"	""	1	"forehead"	NA	2	112	1126	1	1	5
3	91	"C:\Hannah's FYP\Black10_smi.jpg"	""	1	"eyes"	NA	1	121	576	1	0	5
3	92	"C:\Hannah's FYP\White39_smi.jpg"	""	2	"eyes"	NA	2	222	178	2	0	5
3	93	"C:\Hannah's FYP\White24_smi.jpg"	""	2	"nose"	NA	1	231	549	1	0	5
3	94	"C:\Hannah's FYP\Black34_smi.jpg"	""	1	"eyes"	NA	2	122	128	2	0	5
3	95	"C:\Hannah's FYP\White4_smi.jpg"	""	2	"forehead"	NA	1	211	125	1	0	5
3	96	"C:\Hannah's FYP\Black3_smi.jpg"	""	1	"forehead"	NA	1	111	154	1	0	5
3	1	"C:\Hannah's FYP\White9_smi.jpg"	""	2	"eyes"	NA	1	221	305	2	1	6
3	2	"C:\Hannah's FYP\White14_smi.jpg"	""	2	"eyes"	NA	1	221	422	1	0	6
3	3	"C:\Hannah's FYP\White31_smi.jpg"	""	2	"forehead"	NA	2	212	334	1	1	6
3	4	"C:\Hannah's FYP\White30_smi.jpg"	""	2	"forehead"	NA	2	212	354	2	0	6
3	5	"C:\Hannah's FYP\White33_smi.jpg"	""	2	"eyes"	NA	2	222	301	2	0	6
3	6	"C:\Hannah's FYP\White15_smi.jpg"	""	2	"eyes"	NA	1	221	650	1	0	6
3	7	"C:\Hannah's FYP\White24_smi.jpg"	""	2	"nose"	NA	1	231	801	2	1	6
3	8	"C:\Hannah's FYP\White19_smi.jpg"	""	2	"nose"	NA	1	231	529	1	0	6
3	9	"C:\Hannah's FYP\Black5_smi.jpg"	""	1	"forehead"	NA	1	111	1109	2	1	6
3	10	"C:\Hannah's FYP\White1_smi.jpg"	""	2	"forehead"	NA	1	211	1623	2	1	6
3	11	"C:\Hannah's FYP\White38_smi.jpg"	""	2	"eyes"	NA	2	222	524	2	0	6
3	12	"C:\Hannah's FYP\Black47_smi.jpg"	""	1	"nose"	NA	2	132	216	1	1	6
3	13	"C:\Hannah's FYP\White3_smi.jpg"	""	2	"forehead"	NA	1	211	329	1	0	6
3	14	"C:\Hannah's FYP\White18_smi.jpg"	""	2	"nose"	NA	1	231	525	2	1	6
3	15	"C:\Hannah's FYP\Black33_smi.jpg"	""	1	"eyes"	NA	2	122	553	1	1	6
3	16	"C:\Hannah's FYP\White47_smi.jpg"	""	2	"nose"	NA	2	232	388	2	0	6
3	17	"C:\Hannah's FYP\White43_smi.jpg"	""	2	"nose"	NA	2	232	413	2	0	6
3	18	"C:\Hannah's FYP\Black24_smi.jpg"	""	1	"nose"	NA	1	131	638	1	0	6
3	19	"C:\Hannah's FYP\Black11_smi.jpg"	""	1	"eyes"	NA	1	121	373	1	0	6
3	20	"C:\Hannah's FYP\White17_smi.jpg"	""	2	"nose"	NA	1	231	335	1	0	6
3	21	"C:\Hannah's FYP\Black40_smi.jpg"	""	1	"eyes"	NA	2	122	307	2	0	6
3	22	"C:\Hannah's FYP\Black38_smi.jpg"	""	1	"eyes"	NA	2	122	537	1	1	6
3	23	"C:\Hannah's FYP\White26_smi.jpg"	""	2	"forehead"	NA	2	212	228	2	0	6
3	24	"C:\Hannah's FYP\Black27_smi.jpg"	""	1	"forehead"	NA	2	112	325	1	1	6
3	25	"C:\Hannah's FYP\Black28_smi.jpg"	""	1	"forehead"	NA	2	112	649	1	1	6
3	26	"C:\Hannah's FYP\White5_smi.jpg"	""	2	"forehead"	NA	1	211	1448	1	0	6
3	27	"C:\Hannah's FYP\Black26_smi.jpg"	""	1	"forehead"	NA	2	112	516	2	0	6
3	28	"C:\Hannah's FYP\Black19_smi.jpg"	""	1	"nose"	NA	1	131	321	1	0	6
3	29	"C:\Hannah's FYP\White20_smi.jpg"	""	2	"nose"	NA	1	231	710	1	0	6
3	30	"C:\Hannah's FYP\Black18_smi.jpg"	""	1	"nose"	NA	1	131	714	1	0	6
3	31	"C:\Hannah's FYP\White21_smi.jpg"	""	2	"nose"	NA	1	231	550	2	1	6
3	32	"C:\Hannah's FYP\White37_smi.jpg"	""	2	"eyes"	NA	2	222	337	2	0	6
3	33	"C:\Hannah's FYP\White2_smi.jpg"	""	2	"forehead"	NA	1	211	781	1	0	6
3	34	"C:\Hannah's FYP\Black42_smi.jpg"	""	1	"nose"	NA	2	132	470	2	0	6
3	35	"C:\Hannah's FYP\White44_smi.jpg"	""	2	"nose"	NA	2	232	532	2	0	6
3	36	"C:\Hannah's FYP\Black34_smi.jpg"	""	1	"eyes"	NA	2	122	664	2	0	6
3	37	"C:\Hannah's FYP\Black3_smi.jpg"	""	1	"forehead"	NA	1	111	374	1	0	6
3	38	"C:\Hannah's FYP\White42_smi.jpg"	""	2	"nose"	NA	2	232	416	2	0	6
3	39	"C:\Hannah's FYP\White7_smi.jpg"	""	2	"forehead"	NA	1	211	448	1	0	6
3	40	"C:\Hannah's FYP\Black46_smi.jpg"	""	1	"nose"	NA	2	132	408	2	0	6
3	41	"C:\Hannah's FYP\Black39_smi.jpg"	""	1	"eyes"	NA	2	122	457	2	0	6
3	42	"C:\Hannah's FYP\Black9_smi.jpg"	""	1	"eyes"	NA	1	121	248	1	0	6
3	43	"C:\Hannah's FYP\Black12_smi.jpg"	""	1	"eyes"	NA	1	121	432	2	1	6
3	44	"C:\Hannah's FYP\White27_smi.jpg"	""	2	"forehead"	NA	2	212	440	2	0	6
3	45	"C:\Hannah's FYP\Black10_smi.jpg"	""	1	"eyes"	NA	1	121	232	1	0	6
3	46	"C:\Hannah's FYP\Black8_smi.jpg"	""	1	"forehead"	NA	1	111	1232	1	0	6
3	47	"C:\Hannah's FYP\White23_smi.jpg"	""	2	"nose"	NA	1	231	374	2	1	6
3	48	"C:\Hannah's FYP\Black17_smi.jpg"	""	1	"nose"	NA	1	131	472	1	0	6
3	49	"C:\Hannah's FYP\White6_smi.jpg"	""	2	"forehead"	NA	1	211	423	1	0	6
3	50	"C:\Hannah's FYP\White13_smi.jpg"	""	2	"eyes"	NA	1	221	383	2	1	6
3	51	"C:\Hannah's FYP\White48_smi.jpg"	""	2	"nose"	NA	2	232	433	2	0	6
3	52	"C:\Hannah's FYP\Black36_smi.jpg"	""	1	"eyes"	NA	2	122	921	2	0	6
3	53	"C:\Hannah's FYP\White34_smi.jpg"	""	2	"eyes"	NA	2	222	395	2	0	6
3	54	"C:\Hannah's FYP\Black7_smi.jpg"	""	1	"forehead"	NA	1	111	525	1	0	6
3	55	"C:\Hannah's FYP\Black14_smi.jpg"	""	1	"eyes"	NA	1	121	801	2	1	6
3	56	"C:\Hannah's FYP\White8_smi.jpg"	""	2	"forehead"	NA	1	211	577	2	1	6
3	57	"C:\Hannah's FYP\White46_smi.jpg"	""	2	"nose"	NA	2	232	410	2	0	6
3	58	"C:\Hannah's FYP\Black31_smi.jpg"	""	1	"forehead"	NA	2	112	1099	2	0	6
3	59	"C:\Hannah's FYP\Black6_smi.jpg"	""	1	"forehead"	NA	1	111	279	1	0	6
3	60	"C:\Hannah's FYP\Black1_smi.jpg"	""	1	"forehead"	NA	1	111	1677	1	0	6
3	61	"C:\Hannah's FYP\White4_smi.jpg"	""	2	"forehead"	NA	1	211	376	2	1	6
3	62	"C:\Hannah's FYP\White12_smi.jpg"	""	2	"eyes"	NA	1	221	418	1	0	6
3	63	"C:\Hannah's FYP\Black22_smi.jpg"	""	1	"nose"	NA	1	131	547	2	1	6
3	64	"C:\Hannah's FYP\White41_smi.jpg"	""	2	"nose"	NA	2	232	974	2	0	6
3	65	"C:\Hannah's FYP\Black4_smi.jpg"	""	1	"forehead"	NA	1	111	342	1	0	6
3	66	"C:\Hannah's FYP\Black16_smi.jpg"	""	1	"eyes"	NA	1	121	634	1	0	6
3	67	"C:\Hannah's FYP\White28_smi.jpg"	""	2	"forehead"	NA	2	212	426	2	0	6
3	68	"C:\Hannah's FYP\White36_smi.jpg"	""	2	"eyes"	NA	2	222	395	2	0	6
3	69	"C:\Hannah's FYP\Black2_smi.jpg"	""	1	"forehead"	NA	1	111	508	2	1	6
3	70	"C:\Hannah's FYP\Black13_smi.jpg"	""	1	"eyes"	NA	1	121	569	1	0	6
3	71	"C:\Hannah's FYP\White39_smi.jpg"	""	2	"eyes"	NA	2	222	491	2	0	6
3	72	"C:\Hannah's FYP\White32_smi.jpg"	""	2	"forehead"	NA	2	212	480	2	0	6
3	73	"C:\Hannah's FYP\Black15_smi.jpg"	""	1	"eyes"	NA	1	121	622	1	0	6
3	74	"C:\Hannah's FYP\Black48_smi.jpg"	""	1	"nose"	NA	2	132	494	2	0	6
3	75	"C:\Hannah's FYP\White10_smi.jpg"	""	2	"eyes"	NA	1	221	339	2	1	6
3	76	"C:\Hannah's FYP\Black43_smi.jpg"	""	1	"nose"	NA	2	132	399	2	0	6
3	77	"C:\Hannah's FYP\Black32_smi.jpg"	""	1	"forehead"	NA	2	112	320	1	1	6
3	78	"C:\Hannah's FYP\Black37_smi.jpg"	""	1	"eyes"	NA	2	122	501	2	0	6
3	79	"C:\Hannah's FYP\White16_smi.jpg"	""	2	"eyes"	NA	1	221	434	2	1	6
3	80	"C:\Hannah's FYP\White25_smi.jpg"	""	2	"forehead"	NA	2	212	385	2	0	6
3	81	"C:\Hannah's FYP\Black20_smi.jpg"	""	1	"nose"	NA	1	131	387	1	0	6
3	82	"C:\Hannah's FYP\Black29_smi.jpg"	""	1	"forehead"	NA	2	112	236	1	1	6
3	83	"C:\Hannah's FYP\White45_smi.jpg"	""	2	"nose"	NA	2	232	692	2	0	6
3	84	"C:\Hannah's FYP\White29_smi.jpg"	""	2	"forehead"	NA	2	212	473	2	0	6
3	85	"C:\Hannah's FYP\Black45_smi.jpg"	""	1	"nose"	NA	2	132	671	2	0	6
3	86	"C:\Hannah's FYP\Black23_smi.jpg"	""	1	"nose"	NA	1	131	549	2	1	6
3	87	"C:\Hannah's FYP\Black30_smi.jpg"	""	1	"forehead"	NA	2	112	168	1	1	6
3	88	"C:\Hannah's FYP\White35_smi.jpg"	""	2	"eyes"	NA	2	222	531	2	0	6
3	89	"C:\Hannah's FYP\Black21_smi.jpg"	""	1	"nose"	NA	1	131	63	1	0	6
3	90	"C:\Hannah's FYP\Black41_smi.jpg"	""	1	"nose"	NA	2	132	423	2	0	6
3	91	"C:\Hannah's FYP\Black44_smi.jpg"	""	1	"nose"	NA	2	132	239	1	1	6
3	92	"C:\Hannah's FYP\Black25_smi.jpg"	""	1	"forehead"	NA	2	112	159	1	1	6
3	93	"C:\Hannah's FYP\Black35_smi.jpg"	""	1	"eyes"	NA	2	122	291	2	0	6
3	94	"C:\Hannah's FYP\White22_smi.jpg"	""	2	"nose"	NA	1	231	505	1	0	6
3	95	"C:\Hannah's FYP\White11_smi.jpg"	""	2	"eyes"	NA	1	221	373	1	0	6
3	96	"C:\Hannah's FYP\White40_smi.jpg"	""	2	"eyes"	NA	2	222	216	2	0	6
3	1	"C:\Hannah's FYP\White31_smi.jpg"	""	2	"forehead"	NA	2	212	3402	1	1	7
3	2	"C:\Hannah's FYP\Black10_smi.jpg"	""	1	"eyes"	NA	1	121	619	1	0	7
3	3	"C:\Hannah's FYP\Black31_smi.jpg"	""	1	"forehead"	NA	2	112	1306	2	0	7
3	4	"C:\Hannah's FYP\White39_smi.jpg"	""	2	"eyes"	NA	2	222	428	2	0	7
3	5	"C:\Hannah's FYP\White23_smi.jpg"	""	2	"nose"	NA	1	231	525	2	1	7
3	6	"C:\Hannah's FYP\Black15_smi.jpg"	""	1	"eyes"	NA	1	121	561	1	0	7
3	7	"C:\Hannah's FYP\Black24_smi.jpg"	""	1	"nose"	NA	1	131	579	2	1	7
3	8	"C:\Hannah's FYP\Black17_smi.jpg"	""	1	"nose"	NA	1	131	485	2	1	7
3	9	"C:\Hannah's FYP\White19_smi.jpg"	""	2	"nose"	NA	1	231	538	2	1	7
3	10	"C:\Hannah's FYP\Black18_smi.jpg"	""	1	"nose"	NA	1	131	501	2	1	7
3	11	"C:\Hannah's FYP\Black6_smi.jpg"	""	1	"forehead"	NA	1	111	402	1	0	7
3	12	"C:\Hannah's FYP\White2_smi.jpg"	""	2	"forehead"	NA	1	211	371	1	0	7
3	13	"C:\Hannah's FYP\White4_smi.jpg"	""	2	"forehead"	NA	1	211	1021	2	1	7
3	14	"C:\Hannah's FYP\White21_smi.jpg"	""	2	"nose"	NA	1	231	564	2	1	7
3	15	"C:\Hannah's FYP\White14_smi.jpg"	""	2	"eyes"	NA	1	221	1086	2	1	7
3	16	"C:\Hannah's FYP\White30_smi.jpg"	""	2	"forehead"	NA	2	212	570	1	1	7
3	17	"C:\Hannah's FYP\White24_smi.jpg"	""	2	"nose"	NA	1	231	347	1	0	7
3	18	"C:\Hannah's FYP\Black38_smi.jpg"	""	1	"eyes"	NA	2	122	967	2	0	7
3	19	"C:\Hannah's FYP\Black2_smi.jpg"	""	1	"forehead"	NA	1	111	465	2	1	7
3	20	"C:\Hannah's FYP\White1_smi.jpg"	""	2	"forehead"	NA	1	211	903	2	1	7
3	21	"C:\Hannah's FYP\White33_smi.jpg"	""	2	"eyes"	NA	2	222	483	2	0	7
3	22	"C:\Hannah's FYP\Black7_smi.jpg"	""	1	"forehead"	NA	1	111	873	1	0	7
3	23	"C:\Hannah's FYP\Black1_smi.jpg"	""	1	"forehead"	NA	1	111	702	1	0	7
3	24	"C:\Hannah's FYP\White8_smi.jpg"	""	2	"forehead"	NA	1	211	578	1	0	7
3	25	"C:\Hannah's FYP\White44_smi.jpg"	""	2	"nose"	NA	2	232	419	2	0	7
3	26	"C:\Hannah's FYP\Black40_smi.jpg"	""	1	"eyes"	NA	2	122	1252	2	0	7
3	27	"C:\Hannah's FYP\White37_smi.jpg"	""	2	"eyes"	NA	2	222	505	2	0	7
3	28	"C:\Hannah's FYP\Black21_smi.jpg"	""	1	"nose"	NA	1	131	717	2	1	7
3	29	"C:\Hannah's FYP\White34_smi.jpg"	""	2	"eyes"	NA	2	222	385	1	1	7
3	30	"C:\Hannah's FYP\White46_smi.jpg"	""	2	"nose"	NA	2	232	562	2	0	7
3	31	"C:\Hannah's FYP\White17_smi.jpg"	""	2	"nose"	NA	1	231	765	1	0	7
3	32	"C:\Hannah's FYP\White42_smi.jpg"	""	2	"nose"	NA	2	232	839	2	0	7
3	33	"C:\Hannah's FYP\White40_smi.jpg"	""	2	"eyes"	NA	2	222	437	2	0	7
3	34	"C:\Hannah's FYP\White43_smi.jpg"	""	2	"nose"	NA	2	232	1036	2	0	7
3	35	"C:\Hannah's FYP\Black26_smi.jpg"	""	1	"forehead"	NA	2	112	2906	1	1	7
3	36	"C:\Hannah's FYP\Black13_smi.jpg"	""	1	"eyes"	NA	1	121	616	1	0	7
3	37	"C:\Hannah's FYP\White28_smi.jpg"	""	2	"forehead"	NA	2	212	850	2	0	7
3	38	"C:\Hannah's FYP\Black11_smi.jpg"	""	1	"eyes"	NA	1	121	536	1	0	7
3	39	"C:\Hannah's FYP\Black28_smi.jpg"	""	1	"forehead"	NA	2	112	595	2	0	7
3	40	"C:\Hannah's FYP\Black5_smi.jpg"	""	1	"forehead"	NA	1	111	820	1	0	7
3	41	"C:\Hannah's FYP\White27_smi.jpg"	""	2	"forehead"	NA	2	212	443	2	0	7
3	42	"C:\Hannah's FYP\Black37_smi.jpg"	""	1	"eyes"	NA	2	122	523	1	1	7
3	43	"C:\Hannah's FYP\White29_smi.jpg"	""	2	"forehead"	NA	2	212	446	2	0	7
3	44	"C:\Hannah's FYP\White25_smi.jpg"	""	2	"forehead"	NA	2	212	574	1	1	7
3	45	"C:\Hannah's FYP\Black41_smi.jpg"	""	1	"nose"	NA	2	132	735	2	0	7
3	46	"C:\Hannah's FYP\Black46_smi.jpg"	""	1	"nose"	NA	2	132	578	2	0	7
3	47	"C:\Hannah's FYP\White47_smi.jpg"	""	2	"nose"	NA	2	232	436	2	0	7
3	48	"C:\Hannah's FYP\White3_smi.jpg"	""	2	"forehead"	NA	1	211	643	1	0	7
3	49	"C:\Hannah's FYP\White41_smi.jpg"	""	2	"nose"	NA	2	232	370	2	0	7
3	50	"C:\Hannah's FYP\White13_smi.jpg"	""	2	"eyes"	NA	1	221	557	2	1	7
3	51	"C:\Hannah's FYP\White5_smi.jpg"	""	2	"forehead"	NA	1	211	1287	2	1	7
3	52	"C:\Hannah's FYP\Black4_smi.jpg"	""	1	"forehead"	NA	1	111	594	1	0	7
3	53	"C:\Hannah's FYP\Black45_smi.jpg"	""	1	"nose"	NA	2	132	475	2	0	7
3	54	"C:\Hannah's FYP\White7_smi.jpg"	""	2	"forehead"	NA	1	211	1145	1	0	7
3	55	"C:\Hannah's FYP\Black25_smi.jpg"	""	1	"forehead"	NA	2	112	626	2	0	7
3	56	"C:\Hannah's FYP\White18_smi.jpg"	""	2	"nose"	NA	1	231	866	1	0	7
3	57	"C:\Hannah's FYP\Black23_smi.jpg"	""	1	"nose"	NA	1	131	464	1	0	7
3	58	"C:\Hannah's FYP\Black14_smi.jpg"	""	1	"eyes"	NA	1	121	446	2	1	7
3	59	"C:\Hannah's FYP\Black42_smi.jpg"	""	1	"nose"	NA	2	132	758	2	0	7
3	60	"C:\Hannah's FYP\Black36_smi.jpg"	""	1	"eyes"	NA	2	122	448	2	0	7
3	61	"C:\Hannah's FYP\Black30_smi.jpg"	""	1	"forehead"	NA	2	112	895	1	1	7
3	62	"C:\Hannah's FYP\Black19_smi.jpg"	""	1	"nose"	NA	1	131	403	1	0	7
3	63	"C:\Hannah's FYP\Black12_smi.jpg"	""	1	"eyes"	NA	1	121	260	1	0	7
3	64	"C:\Hannah's FYP\Black22_smi.jpg"	""	1	"nose"	NA	1	131	716	2	1	7
3	65	"C:\Hannah's FYP\White32_smi.jpg"	""	2	"forehead"	NA	2	212	576	2	0	7
3	66	"C:\Hannah's FYP\Black48_smi.jpg"	""	1	"nose"	NA	2	132	1562	2	0	7
3	67	"C:\Hannah's FYP\White20_smi.jpg"	""	2	"nose"	NA	1	231	713	2	1	7
3	68	"C:\Hannah's FYP\Black39_smi.jpg"	""	1	"eyes"	NA	2	122	701	2	0	7
3	69	"C:\Hannah's FYP\White22_smi.jpg"	""	2	"nose"	NA	1	231	1841	2	1	7
3	70	"C:\Hannah's FYP\Black34_smi.jpg"	""	1	"eyes"	NA	2	122	404	2	0	7
3	71	"C:\Hannah's FYP\White11_smi.jpg"	""	2	"eyes"	NA	1	221	1045	2	1	7
3	72	"C:\Hannah's FYP\Black3_smi.jpg"	""	1	"forehead"	NA	1	111	659	1	0	7
3	73	"C:\Hannah's FYP\Black47_smi.jpg"	""	1	"nose"	NA	2	132	721	1	1	7
3	74	"C:\Hannah's FYP\Black8_smi.jpg"	""	1	"forehead"	NA	1	111	468	2	1	7
3	75	"C:\Hannah's FYP\White36_smi.jpg"	""	2	"eyes"	NA	2	222	1018	1	1	7
3	76	"C:\Hannah's FYP\White26_smi.jpg"	""	2	"forehead"	NA	2	212	705	1	1	7
3	77	"C:\Hannah's FYP\Black29_smi.jpg"	""	1	"forehead"	NA	2	112	461	1	1	7
3	78	"C:\Hannah's FYP\White16_smi.jpg"	""	2	"eyes"	NA	1	221	2116	2	1	7
3	79	"C:\Hannah's FYP\Black16_smi.jpg"	""	1	"eyes"	NA	1	121	979	1	0	7
3	80	"C:\Hannah's FYP\Black33_smi.jpg"	""	1	"eyes"	NA	2	122	1356	2	0	7
3	81	"C:\Hannah's FYP\Black20_smi.jpg"	""	1	"nose"	NA	1	131	1388	1	0	7
3	82	"C:\Hannah's FYP\White15_smi.jpg"	""	2	"eyes"	NA	1	221	555	1	0	7
3	83	"C:\Hannah's FYP\Black9_smi.jpg"	""	1	"eyes"	NA	1	121	469	2	1	7
3	84	"C:\Hannah's FYP\Black35_smi.jpg"	""	1	"eyes"	NA	2	122	1307	1	1	7
3	85	"C:\Hannah's FYP\White10_smi.jpg"	""	2	"eyes"	NA	1	221	1133	1	0	7
3	86	"C:\Hannah's FYP\White45_smi.jpg"	""	2	"nose"	NA	2	232	855	2	0	7
3	87	"C:\Hannah's FYP\Black44_smi.jpg"	""	1	"nose"	NA	2	132	541	2	0	7
3	88	"C:\Hannah's FYP\White38_smi.jpg"	""	2	"eyes"	NA	2	222	1432	1	1	7
3	89	"C:\Hannah's FYP\White12_smi.jpg"	""	2	"eyes"	NA	1	221	981	2	1	7
3	90	"C:\Hannah's FYP\Black27_smi.jpg"	""	1	"forehead"	NA	2	112	750	2	0	7
3	91	"C:\Hannah's FYP\White9_smi.jpg"	""	2	"eyes"	NA	1	221	401	1	0	7
3	92	"C:\Hannah's FYP\White35_smi.jpg"	""	2	"eyes"	NA	2	222	1354	2	0	7
3	93	"C:\Hannah's FYP\Black43_smi.jpg"	""	1	"nose"	NA	2	132	770	2	0	7
3	94	"C:\Hannah's FYP\Black32_smi.jpg"	""	1	"forehead"	NA	2	112	1211	2	0	7
3	95	"C:\Hannah's FYP\White6_smi.jpg"	""	2	"forehead"	NA	1	211	393	2	1	7
3	96	"C:\Hannah's FYP\White48_smi.jpg"	""	2	"nose"	NA	2	232	667	2	0	7
3	1	"C:\Hannah's FYP\Black46_smi.jpg"	""	1	"nose"	NA	2	132	956	1	1	8
3	2	"C:\Hannah's FYP\Black37_smi.jpg"	""	1	"eyes"	NA	2	122	837	2	0	8
3	3	"C:\Hannah's FYP\Black14_smi.jpg"	""	1	"eyes"	NA	1	121	2259	2	1	8
3	4	"C:\Hannah's FYP\White20_smi.jpg"	""	2	"nose"	NA	1	231	1565	2	1	8
3	5	"C:\Hannah's FYP\White16_smi.jpg"	""	2	"eyes"	NA	1	221	1004	1	0	8
3	6	"C:\Hannah's FYP\White48_smi.jpg"	""	2	"nose"	NA	2	232	1747	2	0	8
3	7	"C:\Hannah's FYP\Black29_smi.jpg"	""	1	"forehead"	NA	2	112	795	1	1	8
3	8	"C:\Hannah's FYP\White40_smi.jpg"	""	2	"eyes"	NA	2	222	819	2	0	8
3	9	"C:\Hannah's FYP\White7_smi.jpg"	""	2	"forehead"	NA	1	211	578	1	0	8
3	10	"C:\Hannah's FYP\Black19_smi.jpg"	""	1	"nose"	NA	1	131	772	1	0	8
3	11	"C:\Hannah's FYP\Black3_smi.jpg"	""	1	"forehead"	NA	1	111	1077	2	1	8
3	12	"C:\Hannah's FYP\White1_smi.jpg"	""	2	"forehead"	NA	1	211	1738	2	1	8
3	13	"C:\Hannah's FYP\White46_smi.jpg"	""	2	"nose"	NA	2	232	1849	2	0	8
3	14	"C:\Hannah's FYP\White32_smi.jpg"	""	2	"forehead"	NA	2	212	908	2	0	8
3	15	"C:\Hannah's FYP\Black16_smi.jpg"	""	1	"eyes"	NA	1	121	640	1	0	8
3	16	"C:\Hannah's FYP\Black28_smi.jpg"	""	1	"forehead"	NA	2	112	911	1	1	8
3	17	"C:\Hannah's FYP\Black4_smi.jpg"	""	1	"forehead"	NA	1	111	810	2	1	8
3	18	"C:\Hannah's FYP\Black47_smi.jpg"	""	1	"nose"	NA	2	132	1034	2	0	8
3	19	"C:\Hannah's FYP\White37_smi.jpg"	""	2	"eyes"	NA	2	222	2040	2	0	8
3	20	"C:\Hannah's FYP\White30_smi.jpg"	""	2	"forehead"	NA	2	212	1899	1	1	8
3	21	"C:\Hannah's FYP\White31_smi.jpg"	""	2	"forehead"	NA	2	212	1036	2	0	8
3	22	"C:\Hannah's FYP\Black23_smi.jpg"	""	1	"nose"	NA	1	131	874	1	0	8
3	23	"C:\Hannah's FYP\White19_smi.jpg"	""	2	"nose"	NA	1	231	1391	2	1	8
3	24	"C:\Hannah's FYP\Black5_smi.jpg"	""	1	"forehead"	NA	1	111	805	2	1	8
3	25	"C:\Hannah's FYP\Black31_smi.jpg"	""	1	"forehead"	NA	2	112	877	2	0	8
3	26	"C:\Hannah's FYP\Black1_smi.jpg"	""	1	"forehead"	NA	1	111	1370	2	1	8
3	27	"C:\Hannah's FYP\White12_smi.jpg"	""	2	"eyes"	NA	1	221	921	1	0	8
3	28	"C:\Hannah's FYP\Black9_smi.jpg"	""	1	"eyes"	NA	1	121	612	1	0	8
3	29	"C:\Hannah's FYP\White35_smi.jpg"	""	2	"eyes"	NA	2	222	980	2	0	8
3	30	"C:\Hannah's FYP\White43_smi.jpg"	""	2	"nose"	NA	2	232	1541	2	0	8
3	31	"C:\Hannah's FYP\White9_smi.jpg"	""	2	"eyes"	NA	1	221	869	2	1	8
3	32	"C:\Hannah's FYP\White3_smi.jpg"	""	2	"forehead"	NA	1	211	1178	2	1	8
3	33	"C:\Hannah's FYP\Black24_smi.jpg"	""	1	"nose"	NA	1	131	874	2	1	8
3	34	"C:\Hannah's FYP\Black25_smi.jpg"	""	1	"forehead"	NA	2	112	1390	2	0	8
3	35	"C:\Hannah's FYP\Black20_smi.jpg"	""	1	"nose"	NA	1	131	1701	2	1	8
3	36	"C:\Hannah's FYP\Black43_smi.jpg"	""	1	"nose"	NA	2	132	1583	2	0	8
3	37	"C:\Hannah's FYP\Black12_smi.jpg"	""	1	"eyes"	NA	1	121	1118	2	1	8
3	38	"C:\Hannah's FYP\Black44_smi.jpg"	""	1	"nose"	NA	2	132	1672	1	1	8
3	39	"C:\Hannah's FYP\White24_smi.jpg"	""	2	"nose"	NA	1	231	1243	1	0	8
3	40	"C:\Hannah's FYP\Black21_smi.jpg"	""	1	"nose"	NA	1	131	784	1	0	8
3	41	"C:\Hannah's FYP\Black6_smi.jpg"	""	1	"forehead"	NA	1	111	2153	1	0	8
3	42	"C:\Hannah's FYP\Black15_smi.jpg"	""	1	"eyes"	NA	1	121	1687	1	0	8
3	43	"C:\Hannah's FYP\Black34_smi.jpg"	""	1	"eyes"	NA	2	122	1833	2	0	8
3	44	"C:\Hannah's FYP\White10_smi.jpg"	""	2	"eyes"	NA	1	221	757	1	0	8
3	45	"C:\Hannah's FYP\White5_smi.jpg"	""	2	"forehead"	NA	1	211	703	1	0	8
3	46	"C:\Hannah's FYP\White45_smi.jpg"	""	2	"nose"	NA	2	232	707	1	1	8
3	47	"C:\Hannah's FYP\Black38_smi.jpg"	""	1	"eyes"	NA	2	122	647	1	1	8
3	48	"C:\Hannah's FYP\Black32_smi.jpg"	""	1	"forehead"	NA	2	112	998	1	1	8
3	49	"C:\Hannah's FYP\Black18_smi.jpg"	""	1	"nose"	NA	1	131	694	1	0	8
3	50	"C:\Hannah's FYP\White26_smi.jpg"	""	2	"forehead"	NA	2	212	1186	1	1	8
3	51	"C:\Hannah's FYP\White6_smi.jpg"	""	2	"forehead"	NA	1	211	1386	2	1	8
3	52	"C:\Hannah's FYP\Black36_smi.jpg"	""	1	"eyes"	NA	2	122	1177	2	0	8
3	53	"C:\Hannah's FYP\Black13_smi.jpg"	""	1	"eyes"	NA	1	121	1049	2	1	8
3	54	"C:\Hannah's FYP\Black8_smi.jpg"	""	1	"forehead"	NA	1	111	959	2	1	8
3	55	"C:\Hannah's FYP\White39_smi.jpg"	""	2	"eyes"	NA	2	222	1376	2	0	8
3	56	"C:\Hannah's FYP\White22_smi.jpg"	""	2	"nose"	NA	1	231	1055	2	1	8
3	57	"C:\Hannah's FYP\White17_smi.jpg"	""	2	"nose"	NA	1	231	884	1	0	8
3	58	"C:\Hannah's FYP\White29_smi.jpg"	""	2	"forehead"	NA	2	212	728	2	0	8
3	59	"C:\Hannah's FYP\White38_smi.jpg"	""	2	"eyes"	NA	2	222	724	2	0	8
3	60	"C:\Hannah's FYP\White8_smi.jpg"	""	2	"forehead"	NA	1	211	1031	2	1	8
3	61	"C:\Hannah's FYP\White41_smi.jpg"	""	2	"nose"	NA	2	232	829	2	0	8
3	62	"C:\Hannah's FYP\Black2_smi.jpg"	""	1	"forehead"	NA	1	111	724	2	1	8
3	63	"C:\Hannah's FYP\Black33_smi.jpg"	""	1	"eyes"	NA	2	122	1128	2	0	8
3	64	"C:\Hannah's FYP\White4_smi.jpg"	""	2	"forehead"	NA	1	211	722	2	1	8
3	65	"C:\Hannah's FYP\White11_smi.jpg"	""	2	"eyes"	NA	1	221	2117	1	0	8
3	66	"C:\Hannah's FYP\White13_smi.jpg"	""	2	"eyes"	NA	1	221	957	1	0	8
3	67	"C:\Hannah's FYP\White18_smi.jpg"	""	2	"nose"	NA	1	231	2022	1	0	8
3	68	"C:\Hannah's FYP\Black10_smi.jpg"	""	1	"eyes"	NA	1	121	466	1	0	8
3	69	"C:\Hannah's FYP\Black35_smi.jpg"	""	1	"eyes"	NA	2	122	864	2	0	8
3	70	"C:\Hannah's FYP\Black17_smi.jpg"	""	1	"nose"	NA	1	131	1286	2	1	8
3	71	"C:\Hannah's FYP\White2_smi.jpg"	""	2	"forehead"	NA	1	211	665	2	1	8
3	72	"C:\Hannah's FYP\Black41_smi.jpg"	""	1	"nose"	NA	2	132	695	2	0	8
3	73	"C:\Hannah's FYP\White15_smi.jpg"	""	2	"eyes"	NA	1	221	700	2	1	8
3	74	"C:\Hannah's FYP\Black39_smi.jpg"	""	1	"eyes"	NA	2	122	1137	2	0	8
3	75	"C:\Hannah's FYP\White44_smi.jpg"	""	2	"nose"	NA	2	232	850	2	0	8
3	76	"C:\Hannah's FYP\Black30_smi.jpg"	""	1	"forehead"	NA	2	112	984	1	1	8
3	77	"C:\Hannah's FYP\White33_smi.jpg"	""	2	"eyes"	NA	2	222	2025	2	0	8
3	78	"C:\Hannah's FYP\Black27_smi.jpg"	""	1	"forehead"	NA	2	112	804	2	0	8
3	79	"C:\Hannah's FYP\White42_smi.jpg"	""	2	"nose"	NA	2	232	900	2	0	8
3	80	"C:\Hannah's FYP\White47_smi.jpg"	""	2	"nose"	NA	2	232	968	2	0	8
3	81	"C:\Hannah's FYP\White23_smi.jpg"	""	2	"nose"	NA	1	231	841	1	0	8
3	82	"C:\Hannah's FYP\Black22_smi.jpg"	""	1	"nose"	NA	1	131	1231	2	1	8
3	83	"C:\Hannah's FYP\Black26_smi.jpg"	""	1	"forehead"	NA	2	112	1085	2	0	8
3	84	"C:\Hannah's FYP\White34_smi.jpg"	""	2	"eyes"	NA	2	222	833	2	0	8
3	85	"C:\Hannah's FYP\Black40_smi.jpg"	""	1	"eyes"	NA	2	122	1336	2	0	8
3	86	"C:\Hannah's FYP\Black7_smi.jpg"	""	1	"forehead"	NA	1	111	1017	1	0	8
3	87	"C:\Hannah's FYP\Black48_smi.jpg"	""	1	"nose"	NA	2	132	1296	2	0	8
3	88	"C:\Hannah's FYP\White25_smi.jpg"	""	2	"forehead"	NA	2	212	675	2	0	8
3	89	"C:\Hannah's FYP\White27_smi.jpg"	""	2	"forehead"	NA	2	212	1640	2	0	8
3	90	"C:\Hannah's FYP\Black45_smi.jpg"	""	1	"nose"	NA	2	132	2700	1	1	8
3	91	"C:\Hannah's FYP\Black42_smi.jpg"	""	1	"nose"	NA	2	132	1395	1	1	8
3	92	"C:\Hannah's FYP\White14_smi.jpg"	""	2	"eyes"	NA	1	221	1617	2	1	8
3	93	"C:\Hannah's FYP\White28_smi.jpg"	""	2	"forehead"	NA	2	212	1184	2	0	8
3	94	"C:\Hannah's FYP\White36_smi.jpg"	""	2	"eyes"	NA	2	222	1000	2	0	8
3	95	"C:\Hannah's FYP\White21_smi.jpg"	""	2	"nose"	NA	1	231	952	2	1	8
3	96	"C:\Hannah's FYP\Black11_smi.jpg"	""	1	"eyes"	NA	1	121	745	1	0	8
3	1	"C:\Hannah's FYP\Black16_smi.jpg"	""	1	"eyes"	NA	1	121	1123	2	1	9
3	2	"C:\Hannah's FYP\Black9_smi.jpg"	""	1	"eyes"	NA	1	121	413	1	0	9
3	3	"C:\Hannah's FYP\Black12_smi.jpg"	""	1	"eyes"	NA	1	121	406	1	0	9
3	4	"C:\Hannah's FYP\White4_smi.jpg"	""	2	"forehead"	NA	1	211	463	1	0	9
3	5	"C:\Hannah's FYP\Black17_smi.jpg"	""	1	"nose"	NA	1	131	654	2	1	9
3	6	"C:\Hannah's FYP\White29_smi.jpg"	""	2	"forehead"	NA	2	212	587	2	0	9
3	7	"C:\Hannah's FYP\White45_smi.jpg"	""	2	"nose"	NA	2	232	644	2	0	9
3	8	"C:\Hannah's FYP\Black45_smi.jpg"	""	1	"nose"	NA	2	132	531	1	1	9
3	9	"C:\Hannah's FYP\Black18_smi.jpg"	""	1	"nose"	NA	1	131	503	1	0	9
3	10	"C:\Hannah's FYP\White40_smi.jpg"	""	2	"eyes"	NA	2	222	540	1	1	9
3	11	"C:\Hannah's FYP\Black19_smi.jpg"	""	1	"nose"	NA	1	131	439	1	0	9
3	12	"C:\Hannah's FYP\White16_smi.jpg"	""	2	"eyes"	NA	1	221	495	1	0	9
3	13	"C:\Hannah's FYP\White41_smi.jpg"	""	2	"nose"	NA	2	232	636	1	1	9
3	14	"C:\Hannah's FYP\White47_smi.jpg"	""	2	"nose"	NA	2	232	771	2	0	9
3	15	"C:\Hannah's FYP\Black31_smi.jpg"	""	1	"forehead"	NA	2	112	556	2	0	9
3	16	"C:\Hannah's FYP\White2_smi.jpg"	""	2	"forehead"	NA	1	211	526	1	0	9
3	17	"C:\Hannah's FYP\Black37_smi.jpg"	""	1	"eyes"	NA	2	122	770	2	0	9
3	18	"C:\Hannah's FYP\White35_smi.jpg"	""	2	"eyes"	NA	2	222	636	2	0	9
3	19	"C:\Hannah's FYP\Black2_smi.jpg"	""	1	"forehead"	NA	1	111	802	2	1	9
3	20	"C:\Hannah's FYP\Black1_smi.jpg"	""	1	"forehead"	NA	1	111	658	1	0	9
3	21	"C:\Hannah's FYP\White12_smi.jpg"	""	2	"eyes"	NA	1	221	472	1	0	9
3	22	"C:\Hannah's FYP\White9_smi.jpg"	""	2	"eyes"	NA	1	221	502	1	0	9
3	23	"C:\Hannah's FYP\Black35_smi.jpg"	""	1	"eyes"	NA	2	122	955	1	1	9
3	24	"C:\Hannah's FYP\White25_smi.jpg"	""	2	"forehead"	NA	2	212	620	2	0	9
3	25	"C:\Hannah's FYP\Black26_smi.jpg"	""	1	"forehead"	NA	2	112	524	2	0	9
3	26	"C:\Hannah's FYP\White22_smi.jpg"	""	2	"nose"	NA	1	231	352	1	0	9
3	27	"C:\Hannah's FYP\Black46_smi.jpg"	""	1	"nose"	NA	2	132	707	2	0	9
3	28	"C:\Hannah's FYP\White31_smi.jpg"	""	2	"forehead"	NA	2	212	543	1	1	9
3	29	"C:\Hannah's FYP\White21_smi.jpg"	""	2	"nose"	NA	1	231	546	1	0	9
3	30	"C:\Hannah's FYP\Black44_smi.jpg"	""	1	"nose"	NA	2	132	477	1	1	9
3	31	"C:\Hannah's FYP\White14_smi.jpg"	""	2	"eyes"	NA	1	221	539	2	1	9
3	32	"C:\Hannah's FYP\Black41_smi.jpg"	""	1	"nose"	NA	2	132	711	2	0	9
3	33	"C:\Hannah's FYP\Black7_smi.jpg"	""	1	"forehead"	NA	1	111	435	1	0	9
3	34	"C:\Hannah's FYP\Black10_smi.jpg"	""	1	"eyes"	NA	1	121	418	1	0	9
3	35	"C:\Hannah's FYP\White34_smi.jpg"	""	2	"eyes"	NA	2	222	434	1	1	9
3	36	"C:\Hannah's FYP\White8_smi.jpg"	""	2	"forehead"	NA	1	211	498	1	0	9
3	37	"C:\Hannah's FYP\Black13_smi.jpg"	""	1	"eyes"	NA	1	121	519	1	0	9
3	38	"C:\Hannah's FYP\White19_smi.jpg"	""	2	"nose"	NA	1	231	483	2	1	9
3	39	"C:\Hannah's FYP\White1_smi.jpg"	""	2	"forehead"	NA	1	211	713	2	1	9
3	40	"C:\Hannah's FYP\Black4_smi.jpg"	""	1	"forehead"	NA	1	111	869	2	1	9
3	41	"C:\Hannah's FYP\White23_smi.jpg"	""	2	"nose"	NA	1	231	586	2	1	9
3	42	"C:\Hannah's FYP\Black8_smi.jpg"	""	1	"forehead"	NA	1	111	371	1	0	9
3	43	"C:\Hannah's FYP\White48_smi.jpg"	""	2	"nose"	NA	2	232	509	1	1	9
3	44	"C:\Hannah's FYP\White38_smi.jpg"	""	2	"eyes"	NA	2	222	362	1	1	9
3	45	"C:\Hannah's FYP\Black3_smi.jpg"	""	1	"forehead"	NA	1	111	429	1	0	9
3	46	"C:\Hannah's FYP\White46_smi.jpg"	""	2	"nose"	NA	2	232	533	2	0	9
3	47	"C:\Hannah's FYP\White5_smi.jpg"	""	2	"forehead"	NA	1	211	417	1	0	9
3	48	"C:\Hannah's FYP\White44_smi.jpg"	""	2	"nose"	NA	2	232	385	2	0	9
3	49	"C:\Hannah's FYP\White20_smi.jpg"	""	2	"nose"	NA	1	231	658	2	1	9
3	50	"C:\Hannah's FYP\Black40_smi.jpg"	""	1	"eyes"	NA	2	122	585	1	1	9
3	51	"C:\Hannah's FYP\Black38_smi.jpg"	""	1	"eyes"	NA	2	122	338	1	1	9
3	52	"C:\Hannah's FYP\White3_smi.jpg"	""	2	"forehead"	NA	1	211	973	1	0	9
3	53	"C:\Hannah's FYP\Black34_smi.jpg"	""	1	"eyes"	NA	2	122	254	1	1	9
3	54	"C:\Hannah's FYP\White11_smi.jpg"	""	2	"eyes"	NA	1	221	373	1	0	9
3	55	"C:\Hannah's FYP\Black39_smi.jpg"	""	1	"eyes"	NA	2	122	456	1	1	9
3	56	"C:\Hannah's FYP\White32_smi.jpg"	""	2	"forehead"	NA	2	212	367	2	0	9
3	57	"C:\Hannah's FYP\Black24_smi.jpg"	""	1	"nose"	NA	1	131	537	2	1	9
3	58	"C:\Hannah's FYP\Black42_smi.jpg"	""	1	"nose"	NA	2	132	932	2	0	9
3	59	"C:\Hannah's FYP\White37_smi.jpg"	""	2	"eyes"	NA	2	222	511	2	0	9
3	60	"C:\Hannah's FYP\White6_smi.jpg"	""	2	"forehead"	NA	1	211	395	1	0	9
3	61	"C:\Hannah's FYP\White27_smi.jpg"	""	2	"forehead"	NA	2	212	581	2	0	9
3	62	"C:\Hannah's FYP\White10_smi.jpg"	""	2	"eyes"	NA	1	221	287	1	0	9
3	63	"C:\Hannah's FYP\White7_smi.jpg"	""	2	"forehead"	NA	1	211	333	1	0	9
3	64	"C:\Hannah's FYP\White30_smi.jpg"	""	2	"forehead"	NA	2	212	600	1	1	9
3	65	"C:\Hannah's FYP\White15_smi.jpg"	""	2	"eyes"	NA	1	221	713	2	1	9
3	66	"C:\Hannah's FYP\White39_smi.jpg"	""	2	"eyes"	NA	2	222	501	2	0	9
3	67	"C:\Hannah's FYP\Black43_smi.jpg"	""	1	"nose"	NA	2	132	450	1	1	9
3	68	"C:\Hannah's FYP\White18_smi.jpg"	""	2	"nose"	NA	1	231	505	1	0	9
3	69	"C:\Hannah's FYP\White33_smi.jpg"	""	2	"eyes"	NA	2	222	422	2	0	9
3	70	"C:\Hannah's FYP\Black11_smi.jpg"	""	1	"eyes"	NA	1	121	430	1	0	9
3	71	"C:\Hannah's FYP\Black22_smi.jpg"	""	1	"nose"	NA	1	131	366	1	0	9
3	72	"C:\Hannah's FYP\Black27_smi.jpg"	""	1	"forehead"	NA	2	112	705	2	0	9
3	73	"C:\Hannah's FYP\Black48_smi.jpg"	""	1	"nose"	NA	2	132	661	2	0	9
3	74	"C:\Hannah's FYP\Black30_smi.jpg"	""	1	"forehead"	NA	2	112	363	1	1	9
3	75	"C:\Hannah's FYP\White43_smi.jpg"	""	2	"nose"	NA	2	232	526	2	0	9
3	76	"C:\Hannah's FYP\White26_smi.jpg"	""	2	"forehead"	NA	2	212	426	1	1	9
3	77	"C:\Hannah's FYP\Black15_smi.jpg"	""	1	"eyes"	NA	1	121	466	1	0	9
3	78	"C:\Hannah's FYP\Black14_smi.jpg"	""	1	"eyes"	NA	1	121	497	1	0	9
3	79	"C:\Hannah's FYP\Black5_smi.jpg"	""	1	"forehead"	NA	1	111	510	2	1	9
3	80	"C:\Hannah's FYP\Black33_smi.jpg"	""	1	"eyes"	NA	2	122	619	2	0	9
3	81	"C:\Hannah's FYP\White42_smi.jpg"	""	2	"nose"	NA	2	232	890	2	0	9
3	82	"C:\Hannah's FYP\Black23_smi.jpg"	""	1	"nose"	NA	1	131	454	2	1	9
3	83	"C:\Hannah's FYP\Black32_smi.jpg"	""	1	"forehead"	NA	2	112	589	1	1	9
3	84	"C:\Hannah's FYP\Black28_smi.jpg"	""	1	"forehead"	NA	2	112	446	1	1	9
3	85	"C:\Hannah's FYP\Black29_smi.jpg"	""	1	"forehead"	NA	2	112	1222	2	0	9
3	86	"C:\Hannah's FYP\White24_smi.jpg"	""	2	"nose"	NA	1	231	379	1	0	9
3	87	"C:\Hannah's FYP\Black47_smi.jpg"	""	1	"nose"	NA	2	132	478	2	0	9
3	88	"C:\Hannah's FYP\White28_smi.jpg"	""	2	"forehead"	NA	2	212	517	2	0	9
3	89	"C:\Hannah's FYP\Black21_smi.jpg"	""	1	"nose"	NA	1	131	697	2	1	9
3	90	"C:\Hannah's FYP\Black6_smi.jpg"	""	1	"forehead"	NA	1	111	358	1	0	9
3	91	"C:\Hannah's FYP\Black36_smi.jpg"	""	1	"eyes"	NA	2	122	593	2	0	9
3	92	"C:\Hannah's FYP\White17_smi.jpg"	""	2	"nose"	NA	1	231	378	1	0	9
3	93	"C:\Hannah's FYP\Black20_smi.jpg"	""	1	"nose"	NA	1	131	412	2	1	9
3	94	"C:\Hannah's FYP\White13_smi.jpg"	""	2	"eyes"	NA	1	221	565	1	0	9
3	95	"C:\Hannah's FYP\White36_smi.jpg"	""	2	"eyes"	NA	2	222	480	2	0	9
3	96	"C:\Hannah's FYP\Black25_smi.jpg"	""	1	"forehead"	NA	2	112	558	1	1	9
3	1	"C:\Hannah's FYP\Black23_smi.jpg"	""	1	"nose"	NA	1	131	1799	2	1	10
3	2	"C:\Hannah's FYP\White17_smi.jpg"	""	2	"nose"	NA	1	231	620	1	0	10
3	3	"C:\Hannah's FYP\Black20_smi.jpg"	""	1	"nose"	NA	1	131	652	2	1	10
3	4	"C:\Hannah's FYP\White9_smi.jpg"	""	2	"eyes"	NA	1	221	1106	1	0	10
3	5	"C:\Hannah's FYP\Black26_smi.jpg"	""	1	"forehead"	NA	2	112	1285	2	0	10
3	6	"C:\Hannah's FYP\Black1_smi.jpg"	""	1	"forehead"	NA	1	111	576	1	0	10
3	7	"C:\Hannah's FYP\Black14_smi.jpg"	""	1	"eyes"	NA	1	121	586	2	1	10
3	8	"C:\Hannah's FYP\Black38_smi.jpg"	""	1	"eyes"	NA	2	122	387	1	1	10
3	9	"C:\Hannah's FYP\White45_smi.jpg"	""	2	"nose"	NA	2	232	893	1	1	10
3	10	"C:\Hannah's FYP\Black21_smi.jpg"	""	1	"nose"	NA	1	131	569	1	0	10
3	11	"C:\Hannah's FYP\Black5_smi.jpg"	""	1	"forehead"	NA	1	111	395	2	1	10
3	12	"C:\Hannah's FYP\White19_smi.jpg"	""	2	"nose"	NA	1	231	1524	1	0	10
3	13	"C:\Hannah's FYP\White38_smi.jpg"	""	2	"eyes"	NA	2	222	573	2	0	10
3	14	"C:\Hannah's FYP\White37_smi.jpg"	""	2	"eyes"	NA	2	222	1751	2	0	10
3	15	"C:\Hannah's FYP\White27_smi.jpg"	""	2	"forehead"	NA	2	212	1183	1	1	10
3	16	"C:\Hannah's FYP\Black25_smi.jpg"	""	1	"forehead"	NA	2	112	703	2	0	10
3	17	"C:\Hannah's FYP\White15_smi.jpg"	""	2	"eyes"	NA	1	221	1731	2	1	10
3	18	"C:\Hannah's FYP\White35_smi.jpg"	""	2	"eyes"	NA	2	222	539	1	1	10
3	19	"C:\Hannah's FYP\White44_smi.jpg"	""	2	"nose"	NA	2	232	846	2	0	10
3	20	"C:\Hannah's FYP\Black48_smi.jpg"	""	1	"nose"	NA	2	132	1508	2	0	10
3	21	"C:\Hannah's FYP\Black36_smi.jpg"	""	1	"eyes"	NA	2	122	854	1	1	10
3	22	"C:\Hannah's FYP\Black41_smi.jpg"	""	1	"nose"	NA	2	132	588	2	0	10
3	23	"C:\Hannah's FYP\Black15_smi.jpg"	""	1	"eyes"	NA	1	121	3157	1	0	10
3	24	"C:\Hannah's FYP\White21_smi.jpg"	""	2	"nose"	NA	1	231	1664	1	0	10
3	25	"C:\Hannah's FYP\White22_smi.jpg"	""	2	"nose"	NA	1	231	1203	1	0	10
3	26	"C:\Hannah's FYP\White31_smi.jpg"	""	2	"forehead"	NA	2	212	666	1	1	10
3	27	"C:\Hannah's FYP\White26_smi.jpg"	""	2	"forehead"	NA	2	212	664	1	1	10
3	28	"C:\Hannah's FYP\White24_smi.jpg"	""	2	"nose"	NA	1	231	542	1	0	10
3	29	"C:\Hannah's FYP\White43_smi.jpg"	""	2	"nose"	NA	2	232	385	2	0	10
3	30	"C:\Hannah's FYP\White23_smi.jpg"	""	2	"nose"	NA	1	231	291	2	1	10
3	31	"C:\Hannah's FYP\White39_smi.jpg"	""	2	"eyes"	NA	2	222	777	2	0	10
3	32	"C:\Hannah's FYP\White46_smi.jpg"	""	2	"nose"	NA	2	232	2258	1	1	10
3	33	"C:\Hannah's FYP\Black17_smi.jpg"	""	1	"nose"	NA	1	131	843	1	0	10
3	34	"C:\Hannah's FYP\Black27_smi.jpg"	""	1	"forehead"	NA	2	112	1234	2	0	10
3	35	"C:\Hannah's FYP\White47_smi.jpg"	""	2	"nose"	NA	2	232	1823	2	0	10
3	36	"C:\Hannah's FYP\White16_smi.jpg"	""	2	"eyes"	NA	1	221	907	1	0	10
3	37	"C:\Hannah's FYP\Black8_smi.jpg"	""	1	"forehead"	NA	1	111	2087	1	0	10
3	38	"C:\Hannah's FYP\Black6_smi.jpg"	""	1	"forehead"	NA	1	111	592	1	0	10
3	39	"C:\Hannah's FYP\Black42_smi.jpg"	""	1	"nose"	NA	2	132	11689	1	1	10
3	40	"C:\Hannah's FYP\White12_smi.jpg"	""	2	"eyes"	NA	1	221	406	1	0	10
3	41	"C:\Hannah's FYP\White5_smi.jpg"	""	2	"forehead"	NA	1	211	2143	1	0	10
3	42	"C:\Hannah's FYP\Black37_smi.jpg"	""	1	"eyes"	NA	2	122	5221	1	1	10
3	43	"C:\Hannah's FYP\Black3_smi.jpg"	""	1	"forehead"	NA	1	111	9384	1	0	10
3	44	"C:\Hannah's FYP\White34_smi.jpg"	""	2	"eyes"	NA	2	222	736	1	1	10
3	45	"C:\Hannah's FYP\White41_smi.jpg"	""	2	"nose"	NA	2	232	890	1	1	10
3	46	"C:\Hannah's FYP\White10_smi.jpg"	""	2	"eyes"	NA	1	221	646	1	0	10
3	47	"C:\Hannah's FYP\Black46_smi.jpg"	""	1	"nose"	NA	2	132	63508	1	1	10
3	48	"C:\Hannah's FYP\Black24_smi.jpg"	""	1	"nose"	NA	1	131	507	1	0	10
3	49	"C:\Hannah's FYP\Black40_smi.jpg"	""	1	"eyes"	NA	2	122	496	2	0	10
3	50	"C:\Hannah's FYP\White2_smi.jpg"	""	2	"forehead"	NA	1	211	285	2	1	10
3	51	"C:\Hannah's FYP\Black32_smi.jpg"	""	1	"forehead"	NA	2	112	10203	1	1	10
3	52	"C:\Hannah's FYP\Black34_smi.jpg"	""	1	"eyes"	NA	2	122	568	2	0	10
3	53	"C:\Hannah's FYP\White3_smi.jpg"	""	2	"forehead"	NA	1	211	442	2	1	10
3	54	"C:\Hannah's FYP\Black4_smi.jpg"	""	1	"forehead"	NA	1	111	473	1	0	10
3	55	"C:\Hannah's FYP\Black10_smi.jpg"	""	1	"eyes"	NA	1	121	16399	2	1	10
3	56	"C:\Hannah's FYP\White6_smi.jpg"	""	2	"forehead"	NA	1	211	402	2	1	10
3	57	"C:\Hannah's FYP\Black43_smi.jpg"	""	1	"nose"	NA	2	132	4747	1	1	10
3	58	"C:\Hannah's FYP\Black13_smi.jpg"	""	1	"eyes"	NA	1	121	9065	2	1	10
3	59	"C:\Hannah's FYP\White40_smi.jpg"	""	2	"eyes"	NA	2	222	32151	1	1	10
3	60	"C:\Hannah's FYP\White13_smi.jpg"	""	2	"eyes"	NA	1	221	9262	1	0	10
3	61	"C:\Hannah's FYP\White33_smi.jpg"	""	2	"eyes"	NA	2	222	2867	2	0	10
3	62	"C:\Hannah's FYP\White20_smi.jpg"	""	2	"nose"	NA	1	231	23290	2	1	10
3	63	"C:\Hannah's FYP\Black35_smi.jpg"	""	1	"eyes"	NA	2	122	454	2	0	10
3	64	"C:\Hannah's FYP\Black22_smi.jpg"	""	1	"nose"	NA	1	131	477	2	1	10
3	65	"C:\Hannah's FYP\Black2_smi.jpg"	""	1	"forehead"	NA	1	111	9659	2	1	10
3	66	"C:\Hannah's FYP\White7_smi.jpg"	""	2	"forehead"	NA	1	211	1055	1	0	10
3	67	"C:\Hannah's FYP\White1_smi.jpg"	""	2	"forehead"	NA	1	211	1948	2	1	10
3	68	"C:\Hannah's FYP\Black29_smi.jpg"	""	1	"forehead"	NA	2	112	1419	2	0	10
3	69	"C:\Hannah's FYP\Black33_smi.jpg"	""	1	"eyes"	NA	2	122	10041	2	0	10
3	70	"C:\Hannah's FYP\Black31_smi.jpg"	""	1	"forehead"	NA	2	112	10629	2	0	10
3	71	"C:\Hannah's FYP\White4_smi.jpg"	""	2	"forehead"	NA	1	211	504	2	1	10
3	72	"C:\Hannah's FYP\White30_smi.jpg"	""	2	"forehead"	NA	2	212	4292	2	0	10
3	73	"C:\Hannah's FYP\White32_smi.jpg"	""	2	"forehead"	NA	2	212	607	2	0	10
3	74	"C:\Hannah's FYP\Black11_smi.jpg"	""	1	"eyes"	NA	1	121	10927	2	1	10
3	75	"C:\Hannah's FYP\White8_smi.jpg"	""	2	"forehead"	NA	1	211	157	2	1	10
3	76	"C:\Hannah's FYP\White25_smi.jpg"	""	2	"forehead"	NA	2	212	15297	2	0	10
3	77	"C:\Hannah's FYP\White28_smi.jpg"	""	2	"forehead"	NA	2	212	2452	2	0	10
3	78	"C:\Hannah's FYP\White18_smi.jpg"	""	2	"nose"	NA	1	231	0	0	1	10
3	79	"C:\Hannah's FYP\Black16_smi.jpg"	""	1	"eyes"	NA	1	121	6193	2	1	10
3	80	"C:\Hannah's FYP\Black7_smi.jpg"	""	1	"forehead"	NA	1	111	26	2	1	10
3	81	"C:\Hannah's FYP\Black47_smi.jpg"	""	1	"nose"	NA	2	132	10651	2	0	10
3	82	"C:\Hannah's FYP\White42_smi.jpg"	""	2	"nose"	NA	2	232	3308	2	0	10
3	83	"C:\Hannah's FYP\Black12_smi.jpg"	""	1	"eyes"	NA	1	121	953	2	1	10
3	84	"C:\Hannah's FYP\White11_smi.jpg"	""	2	"eyes"	NA	1	221	4586	2	1	10
3	85	"C:\Hannah's FYP\White36_smi.jpg"	""	2	"eyes"	NA	2	222	10279	2	0	10
3	86	"C:\Hannah's FYP\Black39_smi.jpg"	""	1	"eyes"	NA	2	122	13104	1	1	10
3	87	"C:\Hannah's FYP\Black9_smi.jpg"	""	1	"eyes"	NA	1	121	577	1	0	10
3	88	"C:\Hannah's FYP\Black19_smi.jpg"	""	1	"nose"	NA	1	131	314	1	0	10
3	89	"C:\Hannah's FYP\Black18_smi.jpg"	""	1	"nose"	NA	1	131	11655	2	1	10
3	90	"C:\Hannah's FYP\White29_smi.jpg"	""	2	"forehead"	NA	2	212	10726	1	1	10
3	91	"C:\Hannah's FYP\White14_smi.jpg"	""	2	"eyes"	NA	1	221	421	2	1	10
3	92	"C:\Hannah's FYP\Black45_smi.jpg"	""	1	"nose"	NA	2	132	477	2	0	10
3	93	"C:\Hannah's FYP\White48_smi.jpg"	""	2	"nose"	NA	2	232	371	2	0	10
3	94	"C:\Hannah's FYP\Black28_smi.jpg"	""	1	"forehead"	NA	2	112	2645	2	0	10
3	95	"C:\Hannah's FYP\Black44_smi.jpg"	""	1	"nose"	NA	2	132	11318	2	0	10
3	96	"C:\Hannah's FYP\Black30_smi.jpg"	""	1	"forehead"	NA	2	112	251	2	0	10
3	1	"C:\Hannah's FYP\White18_smi.jpg"	""	2	"nose"	NA	1	231	553	1	0	11
3	2	"C:\Hannah's FYP\Black7_smi.jpg"	""	1	"forehead"	NA	1	111	571	1	0	11
3	3	"C:\Hannah's FYP\Black5_smi.jpg"	""	1	"forehead"	NA	1	111	717	2	1	11
3	4	"C:\Hannah's FYP\White6_smi.jpg"	""	2	"forehead"	NA	1	211	289	1	0	11
3	5	"C:\Hannah's FYP\White11_smi.jpg"	""	2	"eyes"	NA	1	221	215	1	0	11
3	6	"C:\Hannah's FYP\White43_smi.jpg"	""	2	"nose"	NA	2	232	624	2	0	11
3	7	"C:\Hannah's FYP\White1_smi.jpg"	""	2	"forehead"	NA	1	211	264	1	0	11
3	8	"C:\Hannah's FYP\White40_smi.jpg"	""	2	"eyes"	NA	2	222	623	2	0	11
3	9	"C:\Hannah's FYP\White33_smi.jpg"	""	2	"eyes"	NA	2	222	951	2	0	11
3	10	"C:\Hannah's FYP\White48_smi.jpg"	""	2	"nose"	NA	2	232	497	2	0	11
3	11	"C:\Hannah's FYP\Black12_smi.jpg"	""	1	"eyes"	NA	1	121	1398	2	1	11
3	12	"C:\Hannah's FYP\White17_smi.jpg"	""	2	"nose"	NA	1	231	229	1	0	11
3	13	"C:\Hannah's FYP\Black1_smi.jpg"	""	1	"forehead"	NA	1	111	1830	2	1	11
3	14	"C:\Hannah's FYP\White2_smi.jpg"	""	2	"forehead"	NA	1	211	850	2	1	11
3	15	"C:\Hannah's FYP\White23_smi.jpg"	""	2	"nose"	NA	1	231	464	1	0	11
3	16	"C:\Hannah's FYP\White7_smi.jpg"	""	2	"forehead"	NA	1	211	1007	1	0	11
3	17	"C:\Hannah's FYP\White39_smi.jpg"	""	2	"eyes"	NA	2	222	678	2	0	11
3	18	"C:\Hannah's FYP\Black42_smi.jpg"	""	1	"nose"	NA	2	132	1163	2	0	11
3	19	"C:\Hannah's FYP\Black31_smi.jpg"	""	1	"forehead"	NA	2	112	828	2	0	11
3	20	"C:\Hannah's FYP\White32_smi.jpg"	""	2	"forehead"	NA	2	212	667	2	0	11
3	21	"C:\Hannah's FYP\Black2_smi.jpg"	""	1	"forehead"	NA	1	111	817	1	0	11
3	22	"C:\Hannah's FYP\White29_smi.jpg"	""	2	"forehead"	NA	2	212	585	1	1	11
3	23	"C:\Hannah's FYP\Black11_smi.jpg"	""	1	"eyes"	NA	1	121	1858	2	1	11
3	24	"C:\Hannah's FYP\Black44_smi.jpg"	""	1	"nose"	NA	2	132	1484	1	1	11
3	25	"C:\Hannah's FYP\Black25_smi.jpg"	""	1	"forehead"	NA	2	112	1111	2	0	11
3	26	"C:\Hannah's FYP\Black21_smi.jpg"	""	1	"nose"	NA	1	131	754	1	0	11
3	27	"C:\Hannah's FYP\Black39_smi.jpg"	""	1	"eyes"	NA	2	122	1020	2	0	11
3	28	"C:\Hannah's FYP\Black32_smi.jpg"	""	1	"forehead"	NA	2	112	883	2	0	11
3	29	"C:\Hannah's FYP\White14_smi.jpg"	""	2	"eyes"	NA	1	221	407	1	0	11
3	30	"C:\Hannah's FYP\Black36_smi.jpg"	""	1	"eyes"	NA	2	122	608	2	0	11
3	31	"C:\Hannah's FYP\White42_smi.jpg"	""	2	"nose"	NA	2	232	609	2	0	11
3	32	"C:\Hannah's FYP\Black47_smi.jpg"	""	1	"nose"	NA	2	132	657	2	0	11
3	33	"C:\Hannah's FYP\Black33_smi.jpg"	""	1	"eyes"	NA	2	122	1159	2	0	11
3	34	"C:\Hannah's FYP\White46_smi.jpg"	""	2	"nose"	NA	2	232	744	2	0	11
3	35	"C:\Hannah's FYP\White47_smi.jpg"	""	2	"nose"	NA	2	232	466	2	0	11
3	36	"C:\Hannah's FYP\White9_smi.jpg"	""	2	"eyes"	NA	1	221	1185	2	1	11
3	37	"C:\Hannah's FYP\White35_smi.jpg"	""	2	"eyes"	NA	2	222	601	2	0	11
3	38	"C:\Hannah's FYP\Black41_smi.jpg"	""	1	"nose"	NA	2	132	593	2	0	11
3	39	"C:\Hannah's FYP\Black30_smi.jpg"	""	1	"forehead"	NA	2	112	994	2	0	11
3	40	"C:\Hannah's FYP\Black4_smi.jpg"	""	1	"forehead"	NA	1	111	1042	2	1	11
3	41	"C:\Hannah's FYP\Black16_smi.jpg"	""	1	"eyes"	NA	1	121	1160	1	0	11
3	42	"C:\Hannah's FYP\White10_smi.jpg"	""	2	"eyes"	NA	1	221	657	1	0	11
3	43	"C:\Hannah's FYP\Black43_smi.jpg"	""	1	"nose"	NA	2	132	919	2	0	11
3	44	"C:\Hannah's FYP\Black29_smi.jpg"	""	1	"forehead"	NA	2	112	1282	2	0	11
3	45	"C:\Hannah's FYP\White8_smi.jpg"	""	2	"forehead"	NA	1	211	693	2	1	11
3	46	"C:\Hannah's FYP\Black18_smi.jpg"	""	1	"nose"	NA	1	131	642	2	1	11
3	47	"C:\Hannah's FYP\White25_smi.jpg"	""	2	"forehead"	NA	2	212	713	2	0	11
3	48	"C:\Hannah's FYP\White37_smi.jpg"	""	2	"eyes"	NA	2	222	805	2	0	11
3	49	"C:\Hannah's FYP\White36_smi.jpg"	""	2	"eyes"	NA	2	222	917	2	0	11
3	50	"C:\Hannah's FYP\Black27_smi.jpg"	""	1	"forehead"	NA	2	112	864	2	0	11
3	51	"C:\Hannah's FYP\White5_smi.jpg"	""	2	"forehead"	NA	1	211	1286	1	0	11
3	52	"C:\Hannah's FYP\White15_smi.jpg"	""	2	"eyes"	NA	1	221	953	2	1	11
3	53	"C:\Hannah's FYP\White34_smi.jpg"	""	2	"eyes"	NA	2	222	978	2	0	11
3	54	"C:\Hannah's FYP\White27_smi.jpg"	""	2	"forehead"	NA	2	212	571	2	0	11
3	55	"C:\Hannah's FYP\Black28_smi.jpg"	""	1	"forehead"	NA	2	112	1133	2	0	11
3	56	"C:\Hannah's FYP\White19_smi.jpg"	""	2	"nose"	NA	1	231	863	2	1	11
3	57	"C:\Hannah's FYP\White13_smi.jpg"	""	2	"eyes"	NA	1	221	820	1	0	11
3	58	"C:\Hannah's FYP\Black40_smi.jpg"	""	1	"eyes"	NA	2	122	939	2	0	11
3	59	"C:\Hannah's FYP\Black24_smi.jpg"	""	1	"nose"	NA	1	131	813	1	0	11
3	60	"C:\Hannah's FYP\Black15_smi.jpg"	""	1	"eyes"	NA	1	121	821	2	1	11
3	61	"C:\Hannah's FYP\Black34_smi.jpg"	""	1	"eyes"	NA	2	122	524	2	0	11
3	62	"C:\Hannah's FYP\White44_smi.jpg"	""	2	"nose"	NA	2	232	752	2	0	11
3	63	"C:\Hannah's FYP\White4_smi.jpg"	""	2	"forehead"	NA	1	211	801	2	1	11
3	64	"C:\Hannah's FYP\Black22_smi.jpg"	""	1	"nose"	NA	1	131	1417	2	1	11
3	65	"C:\Hannah's FYP\Black10_smi.jpg"	""	1	"eyes"	NA	1	121	1087	2	1	11
3	66	"C:\Hannah's FYP\Black14_smi.jpg"	""	1	"eyes"	NA	1	121	674	2	1	11
3	67	"C:\Hannah's FYP\Black3_smi.jpg"	""	1	"forehead"	NA	1	111	864	1	0	11
3	68	"C:\Hannah's FYP\White20_smi.jpg"	""	2	"nose"	NA	1	231	597	1	0	11
3	69	"C:\Hannah's FYP\Black45_smi.jpg"	""	1	"nose"	NA	2	132	630	2	0	11
3	70	"C:\Hannah's FYP\White38_smi.jpg"	""	2	"eyes"	NA	2	222	1494	2	0	11
3	71	"C:\Hannah's FYP\White12_smi.jpg"	""	2	"eyes"	NA	1	221	896	2	1	11
3	72	"C:\Hannah's FYP\Black38_smi.jpg"	""	1	"eyes"	NA	2	122	1388	2	0	11
3	73	"C:\Hannah's FYP\Black35_smi.jpg"	""	1	"eyes"	NA	2	122	947	2	0	11
3	74	"C:\Hannah's FYP\Black23_smi.jpg"	""	1	"nose"	NA	1	131	1005	1	0	11
3	75	"C:\Hannah's FYP\Black19_smi.jpg"	""	1	"nose"	NA	1	131	628	1	0	11
3	76	"C:\Hannah's FYP\Black17_smi.jpg"	""	1	"nose"	NA	1	131	532	2	1	11
3	77	"C:\Hannah's FYP\White22_smi.jpg"	""	2	"nose"	NA	1	231	1152	1	0	11
3	78	"C:\Hannah's FYP\White31_smi.jpg"	""	2	"forehead"	NA	2	212	809	1	1	11
3	79	"C:\Hannah's FYP\White21_smi.jpg"	""	2	"nose"	NA	1	231	529	1	0	11
3	80	"C:\Hannah's FYP\Black48_smi.jpg"	""	1	"nose"	NA	2	132	677	2	0	11
3	81	"C:\Hannah's FYP\White26_smi.jpg"	""	2	"forehead"	NA	2	212	490	2	0	11
3	82	"C:\Hannah's FYP\Black20_smi.jpg"	""	1	"nose"	NA	1	131	872	2	1	11
3	83	"C:\Hannah's FYP\Black6_smi.jpg"	""	1	"forehead"	NA	1	111	812	1	0	11
3	84	"C:\Hannah's FYP\White16_smi.jpg"	""	2	"eyes"	NA	1	221	2220	2	1	11
3	85	"C:\Hannah's FYP\Black8_smi.jpg"	""	1	"forehead"	NA	1	111	1032	2	1	11
3	86	"C:\Hannah's FYP\Black13_smi.jpg"	""	1	"eyes"	NA	1	121	1742	2	1	11
3	87	"C:\Hannah's FYP\White3_smi.jpg"	""	2	"forehead"	NA	1	211	806	1	0	11
3	88	"C:\Hannah's FYP\White41_smi.jpg"	""	2	"nose"	NA	2	232	1461	2	0	11
3	89	"C:\Hannah's FYP\Black9_smi.jpg"	""	1	"eyes"	NA	1	121	721	1	0	11
3	90	"C:\Hannah's FYP\White24_smi.jpg"	""	2	"nose"	NA	1	231	844	1	0	11
3	91	"C:\Hannah's FYP\Black37_smi.jpg"	""	1	"eyes"	NA	2	122	803	2	0	11
3	92	"C:\Hannah's FYP\White28_smi.jpg"	""	2	"forehead"	NA	2	212	660	2	0	11
3	93	"C:\Hannah's FYP\Black26_smi.jpg"	""	1	"forehead"	NA	2	112	1218	2	0	11
3	94	"C:\Hannah's FYP\Black46_smi.jpg"	""	1	"nose"	NA	2	132	792	1	1	11
3	95	"C:\Hannah's FYP\White45_smi.jpg"	""	2	"nose"	NA	2	232	1033	2	0	11
3	96	"C:\Hannah's FYP\White30_smi.jpg"	""	2	"forehead"	NA	2	212	527	2	0	11
3	1	"C:\Hannah's FYP\White18_smi.jpg"	""	2	"nose"	NA	1	231	2311	1	0	12
3	2	"C:\Hannah's FYP\Black44_smi.jpg"	""	1	"nose"	NA	2	132	783	2	0	12
3	3	"C:\Hannah's FYP\Black12_smi.jpg"	""	1	"eyes"	NA	1	121	1200	1	0	12
3	4	"C:\Hannah's FYP\Black19_smi.jpg"	""	1	"nose"	NA	1	131	927	2	1	12
3	5	"C:\Hannah's FYP\Black23_smi.jpg"	""	1	"nose"	NA	1	131	730	1	0	12
3	6	"C:\Hannah's FYP\White14_smi.jpg"	""	2	"eyes"	NA	1	221	1421	2	1	12
3	7	"C:\Hannah's FYP\Black5_smi.jpg"	""	1	"forehead"	NA	1	111	1778	2	1	12
3	8	"C:\Hannah's FYP\Black42_smi.jpg"	""	1	"nose"	NA	2	132	616	2	0	12
3	9	"C:\Hannah's FYP\Black18_smi.jpg"	""	1	"nose"	NA	1	131	273	1	0	12
3	10	"C:\Hannah's FYP\White12_smi.jpg"	""	2	"eyes"	NA	1	221	375	1	0	12
3	11	"C:\Hannah's FYP\Black22_smi.jpg"	""	1	"nose"	NA	1	131	914	1	0	12
3	12	"C:\Hannah's FYP\Black38_smi.jpg"	""	1	"eyes"	NA	2	122	597	1	1	12
3	13	"C:\Hannah's FYP\White2_smi.jpg"	""	2	"forehead"	NA	1	211	566	1	0	12
3	14	"C:\Hannah's FYP\Black1_smi.jpg"	""	1	"forehead"	NA	1	111	153	2	1	12
3	15	"C:\Hannah's FYP\White39_smi.jpg"	""	2	"eyes"	NA	2	222	492	2	0	12
3	16	"C:\Hannah's FYP\White22_smi.jpg"	""	2	"nose"	NA	1	231	610	1	0	12
3	17	"C:\Hannah's FYP\Black27_smi.jpg"	""	1	"forehead"	NA	2	112	370	2	0	12
3	18	"C:\Hannah's FYP\Black15_smi.jpg"	""	1	"eyes"	NA	1	121	900	1	0	12
3	19	"C:\Hannah's FYP\Black24_smi.jpg"	""	1	"nose"	NA	1	131	1664	2	1	12
3	20	"C:\Hannah's FYP\Black32_smi.jpg"	""	1	"forehead"	NA	2	112	524	2	0	12
3	21	"C:\Hannah's FYP\White45_smi.jpg"	""	2	"nose"	NA	2	232	408	2	0	12
3	22	"C:\Hannah's FYP\White38_smi.jpg"	""	2	"eyes"	NA	2	222	656	2	0	12
3	23	"C:\Hannah's FYP\White31_smi.jpg"	""	2	"forehead"	NA	2	212	447	2	0	12
3	24	"C:\Hannah's FYP\Black3_smi.jpg"	""	1	"forehead"	NA	1	111	230	2	1	12
3	25	"C:\Hannah's FYP\White3_smi.jpg"	""	2	"forehead"	NA	1	211	391	2	1	12
3	26	"C:\Hannah's FYP\White24_smi.jpg"	""	2	"nose"	NA	1	231	321	2	1	12
3	27	"C:\Hannah's FYP\Black43_smi.jpg"	""	1	"nose"	NA	2	132	301	2	0	12
3	28	"C:\Hannah's FYP\White32_smi.jpg"	""	2	"forehead"	NA	2	212	274	2	0	12
3	29	"C:\Hannah's FYP\Black14_smi.jpg"	""	1	"eyes"	NA	1	121	1113	2	1	12
3	30	"C:\Hannah's FYP\Black17_smi.jpg"	""	1	"nose"	NA	1	131	292	2	1	12
3	31	"C:\Hannah's FYP\White36_smi.jpg"	""	2	"eyes"	NA	2	222	994	1	1	12
3	32	"C:\Hannah's FYP\Black26_smi.jpg"	""	1	"forehead"	NA	2	112	906	2	0	12
3	33	"C:\Hannah's FYP\White43_smi.jpg"	""	2	"nose"	NA	2	232	781	2	0	12
3	34	"C:\Hannah's FYP\White21_smi.jpg"	""	2	"nose"	NA	1	231	782	2	1	12
3	35	"C:\Hannah's FYP\White30_smi.jpg"	""	2	"forehead"	NA	2	212	959	1	1	12
3	36	"C:\Hannah's FYP\White7_smi.jpg"	""	2	"forehead"	NA	1	211	425	1	0	12
3	37	"C:\Hannah's FYP\Black29_smi.jpg"	""	1	"forehead"	NA	2	112	497	1	1	12
3	38	"C:\Hannah's FYP\Black37_smi.jpg"	""	1	"eyes"	NA	2	122	646	1	1	12
3	39	"C:\Hannah's FYP\Black47_smi.jpg"	""	1	"nose"	NA	2	132	637	2	0	12
3	40	"C:\Hannah's FYP\Black40_smi.jpg"	""	1	"eyes"	NA	2	122	852	2	0	12
3	41	"C:\Hannah's FYP\White11_smi.jpg"	""	2	"eyes"	NA	1	221	609	1	0	12
3	42	"C:\Hannah's FYP\Black13_smi.jpg"	""	1	"eyes"	NA	1	121	274	1	0	12
3	43	"C:\Hannah's FYP\White8_smi.jpg"	""	2	"forehead"	NA	1	211	1264	2	1	12
3	44	"C:\Hannah's FYP\Black21_smi.jpg"	""	1	"nose"	NA	1	131	917	2	1	12
3	45	"C:\Hannah's FYP\White29_smi.jpg"	""	2	"forehead"	NA	2	212	312	1	1	12
3	46	"C:\Hannah's FYP\Black11_smi.jpg"	""	1	"eyes"	NA	1	121	221	1	0	12
3	47	"C:\Hannah's FYP\Black39_smi.jpg"	""	1	"eyes"	NA	2	122	278	2	0	12
3	48	"C:\Hannah's FYP\Black6_smi.jpg"	""	1	"forehead"	NA	1	111	277	2	1	12
3	49	"C:\Hannah's FYP\White47_smi.jpg"	""	2	"nose"	NA	2	232	332	2	0	12
3	50	"C:\Hannah's FYP\White46_smi.jpg"	""	2	"nose"	NA	2	232	320	2	0	12
3	51	"C:\Hannah's FYP\White42_smi.jpg"	""	2	"nose"	NA	2	232	277	2	0	12
3	52	"C:\Hannah's FYP\White26_smi.jpg"	""	2	"forehead"	NA	2	212	347	1	1	12
3	53	"C:\Hannah's FYP\White34_smi.jpg"	""	2	"eyes"	NA	2	222	679	1	1	12
3	54	"C:\Hannah's FYP\White1_smi.jpg"	""	2	"forehead"	NA	1	211	533	2	1	12
3	55	"C:\Hannah's FYP\White35_smi.jpg"	""	2	"eyes"	NA	2	222	841	2	0	12
3	56	"C:\Hannah's FYP\Black16_smi.jpg"	""	1	"eyes"	NA	1	121	663	1	0	12
3	57	"C:\Hannah's FYP\Black10_smi.jpg"	""	1	"eyes"	NA	1	121	669	1	0	12
3	58	"C:\Hannah's FYP\White19_smi.jpg"	""	2	"nose"	NA	1	231	802	1	0	12
3	59	"C:\Hannah's FYP\Black46_smi.jpg"	""	1	"nose"	NA	2	132	674	2	0	12
3	60	"C:\Hannah's FYP\White17_smi.jpg"	""	2	"nose"	NA	1	231	215	1	0	12
3	61	"C:\Hannah's FYP\Black45_smi.jpg"	""	1	"nose"	NA	2	132	465	2	0	12
3	62	"C:\Hannah's FYP\Black34_smi.jpg"	""	1	"eyes"	NA	2	122	464	2	0	12
3	63	"C:\Hannah's FYP\White5_smi.jpg"	""	2	"forehead"	NA	1	211	519	1	0	12
3	64	"C:\Hannah's FYP\Black33_smi.jpg"	""	1	"eyes"	NA	2	122	915	2	0	12
3	65	"C:\Hannah's FYP\Black35_smi.jpg"	""	1	"eyes"	NA	2	122	342	2	0	12
3	66	"C:\Hannah's FYP\White28_smi.jpg"	""	2	"forehead"	NA	2	212	803	2	0	12
3	67	"C:\Hannah's FYP\White10_smi.jpg"	""	2	"eyes"	NA	1	221	635	1	0	12
3	68	"C:\Hannah's FYP\White23_smi.jpg"	""	2	"nose"	NA	1	231	514	1	0	12
3	69	"C:\Hannah's FYP\Black41_smi.jpg"	""	1	"nose"	NA	2	132	471	2	0	12
3	70	"C:\Hannah's FYP\Black31_smi.jpg"	""	1	"forehead"	NA	2	112	741	1	1	12
3	71	"C:\Hannah's FYP\White13_smi.jpg"	""	2	"eyes"	NA	1	221	575	2	1	12
3	72	"C:\Hannah's FYP\White25_smi.jpg"	""	2	"forehead"	NA	2	212	569	1	1	12
3	73	"C:\Hannah's FYP\White16_smi.jpg"	""	2	"eyes"	NA	1	221	883	2	1	12
3	74	"C:\Hannah's FYP\Black8_smi.jpg"	""	1	"forehead"	NA	1	111	576	2	1	12
3	75	"C:\Hannah's FYP\White20_smi.jpg"	""	2	"nose"	NA	1	231	625	1	0	12
3	76	"C:\Hannah's FYP\White41_smi.jpg"	""	2	"nose"	NA	2	232	473	2	0	12
3	77	"C:\Hannah's FYP\White4_smi.jpg"	""	2	"forehead"	NA	1	211	839	1	0	12
3	78	"C:\Hannah's FYP\White33_smi.jpg"	""	2	"eyes"	NA	2	222	477	2	0	12
3	79	"C:\Hannah's FYP\White15_smi.jpg"	""	2	"eyes"	NA	1	221	883	2	1	12
3	80	"C:\Hannah's FYP\Black48_smi.jpg"	""	1	"nose"	NA	2	132	824	2	0	12
3	81	"C:\Hannah's FYP\White44_smi.jpg"	""	2	"nose"	NA	2	232	455	2	0	12
3	82	"C:\Hannah's FYP\White27_smi.jpg"	""	2	"forehead"	NA	2	212	518	2	0	12
3	83	"C:\Hannah's FYP\White9_smi.jpg"	""	2	"eyes"	NA	1	221	626	2	1	12
3	84	"C:\Hannah's FYP\Black7_smi.jpg"	""	1	"forehead"	NA	1	111	514	2	1	12
3	85	"C:\Hannah's FYP\Black20_smi.jpg"	""	1	"nose"	NA	1	131	478	2	1	12
3	86	"C:\Hannah's FYP\Black4_smi.jpg"	""	1	"forehead"	NA	1	111	580	2	1	12
3	87	"C:\Hannah's FYP\Black25_smi.jpg"	""	1	"forehead"	NA	2	112	262	2	0	12
3	88	"C:\Hannah's FYP\White6_smi.jpg"	""	2	"forehead"	NA	1	211	237	2	1	12
3	89	"C:\Hannah's FYP\Black28_smi.jpg"	""	1	"forehead"	NA	2	112	2525	2	0	12
3	90	"C:\Hannah's FYP\White40_smi.jpg"	""	2	"eyes"	NA	2	222	251	2	0	12
3	91	"C:\Hannah's FYP\Black30_smi.jpg"	""	1	"forehead"	NA	2	112	363	2	0	12
3	92	"C:\Hannah's FYP\White37_smi.jpg"	""	2	"eyes"	NA	2	222	462	2	0	12
3	93	"C:\Hannah's FYP\Black36_smi.jpg"	""	1	"eyes"	NA	2	122	261	2	0	12
3	94	"C:\Hannah's FYP\Black9_smi.jpg"	""	1	"eyes"	NA	1	121	316	1	0	12
3	95	"C:\Hannah's FYP\White48_smi.jpg"	""	2	"nose"	NA	2	232	481	2	0	12
3	96	"C:\Hannah's FYP\Black2_smi.jpg"	""	1	"forehead"	NA	1	111	631	2	1	12
3	1	"C:\Hannah's FYP\White44_smi.jpg"	""	2	"nose"	NA	2	232	1147	2	0	13
3	2	"C:\Hannah's FYP\Black24_smi.jpg"	""	1	"nose"	NA	1	131	1173	2	1	13
3	3	"C:\Hannah's FYP\Black19_smi.jpg"	""	1	"nose"	NA	1	131	356	1	0	13
3	4	"C:\Hannah's FYP\Black16_smi.jpg"	""	1	"eyes"	NA	1	121	439	1	0	13
3	5	"C:\Hannah's FYP\Black29_smi.jpg"	""	1	"forehead"	NA	2	112	351	1	1	13
3	6	"C:\Hannah's FYP\White37_smi.jpg"	""	2	"eyes"	NA	2	222	306	2	0	13
3	7	"C:\Hannah's FYP\Black38_smi.jpg"	""	1	"eyes"	NA	2	122	519	2	0	13
3	8	"C:\Hannah's FYP\White15_smi.jpg"	""	2	"eyes"	NA	1	221	355	1	0	13
3	9	"C:\Hannah's FYP\Black39_smi.jpg"	""	1	"eyes"	NA	2	122	334	1	1	13
3	10	"C:\Hannah's FYP\White17_smi.jpg"	""	2	"nose"	NA	1	231	458	1	0	13
3	11	"C:\Hannah's FYP\Black26_smi.jpg"	""	1	"forehead"	NA	2	112	409	2	0	13
3	12	"C:\Hannah's FYP\Black6_smi.jpg"	""	1	"forehead"	NA	1	111	266	1	0	13
3	13	"C:\Hannah's FYP\Black12_smi.jpg"	""	1	"eyes"	NA	1	121	337	1	0	13
3	14	"C:\Hannah's FYP\White4_smi.jpg"	""	2	"forehead"	NA	1	211	325	2	1	13
3	15	"C:\Hannah's FYP\White6_smi.jpg"	""	2	"forehead"	NA	1	211	473	1	0	13
3	16	"C:\Hannah's FYP\White47_smi.jpg"	""	2	"nose"	NA	2	232	432	2	0	13
3	17	"C:\Hannah's FYP\White25_smi.jpg"	""	2	"forehead"	NA	2	212	384	2	0	13
3	18	"C:\Hannah's FYP\Black14_smi.jpg"	""	1	"eyes"	NA	1	121	409	1	0	13
3	19	"C:\Hannah's FYP\White11_smi.jpg"	""	2	"eyes"	NA	1	221	418	1	0	13
3	20	"C:\Hannah's FYP\Black31_smi.jpg"	""	1	"forehead"	NA	2	112	331	2	0	13
3	21	"C:\Hannah's FYP\Black1_smi.jpg"	""	1	"forehead"	NA	1	111	375	2	1	13
3	22	"C:\Hannah's FYP\White31_smi.jpg"	""	2	"forehead"	NA	2	212	417	2	0	13
3	23	"C:\Hannah's FYP\White14_smi.jpg"	""	2	"eyes"	NA	1	221	562	1	0	13
3	24	"C:\Hannah's FYP\White3_smi.jpg"	""	2	"forehead"	NA	1	211	292	2	1	13
3	25	"C:\Hannah's FYP\White41_smi.jpg"	""	2	"nose"	NA	2	232	354	2	0	13
3	26	"C:\Hannah's FYP\Black40_smi.jpg"	""	1	"eyes"	NA	2	122	333	2	0	13
3	27	"C:\Hannah's FYP\Black13_smi.jpg"	""	1	"eyes"	NA	1	121	321	1	0	13
3	28	"C:\Hannah's FYP\Black41_smi.jpg"	""	1	"nose"	NA	2	132	294	2	0	13
3	29	"C:\Hannah's FYP\White18_smi.jpg"	""	2	"nose"	NA	1	231	355	2	1	13
3	30	"C:\Hannah's FYP\Black7_smi.jpg"	""	1	"forehead"	NA	1	111	503	1	0	13
3	31	"C:\Hannah's FYP\Black32_smi.jpg"	""	1	"forehead"	NA	2	112	571	1	1	13
3	32	"C:\Hannah's FYP\White9_smi.jpg"	""	2	"eyes"	NA	1	221	333	1	0	13
3	33	"C:\Hannah's FYP\Black11_smi.jpg"	""	1	"eyes"	NA	1	121	457	2	1	13
3	34	"C:\Hannah's FYP\Black5_smi.jpg"	""	1	"forehead"	NA	1	111	352	2	1	13
3	35	"C:\Hannah's FYP\White48_smi.jpg"	""	2	"nose"	NA	2	232	659	1	1	13
3	36	"C:\Hannah's FYP\Black36_smi.jpg"	""	1	"eyes"	NA	2	122	353	2	0	13
3	37	"C:\Hannah's FYP\White28_smi.jpg"	""	2	"forehead"	NA	2	212	349	2	0	13
3	38	"C:\Hannah's FYP\Black28_smi.jpg"	""	1	"forehead"	NA	2	112	273	1	1	13
3	39	"C:\Hannah's FYP\White13_smi.jpg"	""	2	"eyes"	NA	1	221	344	2	1	13
3	40	"C:\Hannah's FYP\White1_smi.jpg"	""	2	"forehead"	NA	1	211	348	1	0	13
3	41	"C:\Hannah's FYP\Black21_smi.jpg"	""	1	"nose"	NA	1	131	471	1	0	13
3	42	"C:\Hannah's FYP\White19_smi.jpg"	""	2	"nose"	NA	1	231	357	2	1	13
3	43	"C:\Hannah's FYP\Black3_smi.jpg"	""	1	"forehead"	NA	1	111	544	2	1	13
3	44	"C:\Hannah's FYP\Black47_smi.jpg"	""	1	"nose"	NA	2	132	188	1	1	13
3	45	"C:\Hannah's FYP\Black20_smi.jpg"	""	1	"nose"	NA	1	131	350	1	0	13
3	46	"C:\Hannah's FYP\Black25_smi.jpg"	""	1	"forehead"	NA	2	112	585	1	1	13
3	47	"C:\Hannah's FYP\White21_smi.jpg"	""	2	"nose"	NA	1	231	162	2	1	13
3	48	"C:\Hannah's FYP\White16_smi.jpg"	""	2	"eyes"	NA	1	221	342	2	1	13
3	49	"C:\Hannah's FYP\White8_smi.jpg"	""	2	"forehead"	NA	1	211	250	1	0	13
3	50	"C:\Hannah's FYP\White29_smi.jpg"	""	2	"forehead"	NA	2	212	329	2	0	13
3	51	"C:\Hannah's FYP\White36_smi.jpg"	""	2	"eyes"	NA	2	222	285	2	0	13
3	52	"C:\Hannah's FYP\White20_smi.jpg"	""	2	"nose"	NA	1	231	579	1	0	13
3	53	"C:\Hannah's FYP\White40_smi.jpg"	""	2	"eyes"	NA	2	222	613	2	0	13
3	54	"C:\Hannah's FYP\White2_smi.jpg"	""	2	"forehead"	NA	1	211	670	2	1	13
3	55	"C:\Hannah's FYP\Black15_smi.jpg"	""	1	"eyes"	NA	1	121	339	1	0	13
3	56	"C:\Hannah's FYP\White7_smi.jpg"	""	2	"forehead"	NA	1	211	703	1	0	13
3	57	"C:\Hannah's FYP\White43_smi.jpg"	""	2	"nose"	NA	2	232	443	2	0	13
3	58	"C:\Hannah's FYP\White26_smi.jpg"	""	2	"forehead"	NA	2	212	194	1	1	13
3	59	"C:\Hannah's FYP\White35_smi.jpg"	""	2	"eyes"	NA	2	222	293	2	0	13
3	60	"C:\Hannah's FYP\Black42_smi.jpg"	""	1	"nose"	NA	2	132	418	2	0	13
3	61	"C:\Hannah's FYP\Black34_smi.jpg"	""	1	"eyes"	NA	2	122	627	2	0	13
3	62	"C:\Hannah's FYP\White24_smi.jpg"	""	2	"nose"	NA	1	231	370	1	0	13
3	63	"C:\Hannah's FYP\Black45_smi.jpg"	""	1	"nose"	NA	2	132	413	2	0	13
3	64	"C:\Hannah's FYP\White30_smi.jpg"	""	2	"forehead"	NA	2	212	390	2	0	13
3	65	"C:\Hannah's FYP\White32_smi.jpg"	""	2	"forehead"	NA	2	212	727	2	0	13
3	66	"C:\Hannah's FYP\Black22_smi.jpg"	""	1	"nose"	NA	1	131	851	1	0	13
3	67	"C:\Hannah's FYP\White10_smi.jpg"	""	2	"eyes"	NA	1	221	257	1	0	13
3	68	"C:\Hannah's FYP\Black35_smi.jpg"	""	1	"eyes"	NA	2	122	328	2	0	13
3	69	"C:\Hannah's FYP\Black4_smi.jpg"	""	1	"forehead"	NA	1	111	437	2	1	13
3	70	"C:\Hannah's FYP\White5_smi.jpg"	""	2	"forehead"	NA	1	211	196	1	0	13
3	71	"C:\Hannah's FYP\Black48_smi.jpg"	""	1	"nose"	NA	2	132	446	1	1	13
3	72	"C:\Hannah's FYP\Black2_smi.jpg"	""	1	"forehead"	NA	1	111	278	2	1	13
3	73	"C:\Hannah's FYP\White12_smi.jpg"	""	2	"eyes"	NA	1	221	301	1	0	13
3	74	"C:\Hannah's FYP\White23_smi.jpg"	""	2	"nose"	NA	1	231	450	1	0	13
3	75	"C:\Hannah's FYP\White33_smi.jpg"	""	2	"eyes"	NA	2	222	385	2	0	13
3	76	"C:\Hannah's FYP\Black10_smi.jpg"	""	1	"eyes"	NA	1	121	362	1	0	13
3	77	"C:\Hannah's FYP\Black27_smi.jpg"	""	1	"forehead"	NA	2	112	621	2	0	13
3	78	"C:\Hannah's FYP\Black23_smi.jpg"	""	1	"nose"	NA	1	131	341	2	1	13
3	79	"C:\Hannah's FYP\Black8_smi.jpg"	""	1	"forehead"	NA	1	111	249	1	0	13
3	80	"C:\Hannah's FYP\White38_smi.jpg"	""	2	"eyes"	NA	2	222	273	2	0	13
3	81	"C:\Hannah's FYP\Black18_smi.jpg"	""	1	"nose"	NA	1	131	240	2	1	13
3	82	"C:\Hannah's FYP\Black44_smi.jpg"	""	1	"nose"	NA	2	132	240	1	1	13
3	83	"C:\Hannah's FYP\White22_smi.jpg"	""	2	"nose"	NA	1	231	264	1	0	13
3	84	"C:\Hannah's FYP\Black37_smi.jpg"	""	1	"eyes"	NA	2	122	279	2	0	13
3	85	"C:\Hannah's FYP\Black30_smi.jpg"	""	1	"forehead"	NA	2	112	382	1	1	13
3	86	"C:\Hannah's FYP\Black43_smi.jpg"	""	1	"nose"	NA	2	132	224	2	0	13
3	87	"C:\Hannah's FYP\White42_smi.jpg"	""	2	"nose"	NA	2	232	513	2	0	13
3	88	"C:\Hannah's FYP\White39_smi.jpg"	""	2	"eyes"	NA	2	222	182	1	1	13
3	89	"C:\Hannah's FYP\White34_smi.jpg"	""	2	"eyes"	NA	2	222	385	2	0	13
3	90	"C:\Hannah's FYP\White27_smi.jpg"	""	2	"forehead"	NA	2	212	274	2	0	13
3	91	"C:\Hannah's FYP\Black33_smi.jpg"	""	1	"eyes"	NA	2	122	393	1	1	13
3	92	"C:\Hannah's FYP\Black17_smi.jpg"	""	1	"nose"	NA	1	131	307	2	1	13
3	93	"C:\Hannah's FYP\White45_smi.jpg"	""	2	"nose"	NA	2	232	376	2	0	13
3	94	"C:\Hannah's FYP\Black46_smi.jpg"	""	1	"nose"	NA	2	132	482	2	0	13
3	95	"C:\Hannah's FYP\White46_smi.jpg"	""	2	"nose"	NA	2	232	448	1	1	13
3	96	"C:\Hannah's FYP\Black9_smi.jpg"	""	1	"eyes"	NA	1	121	416	1	0	13
3	1	"C:\Hannah's FYP\White14_smi.jpg"	""	2	"eyes"	NA	1	221	666	1	0	14
3	2	"C:\Hannah's FYP\Black8_smi.jpg"	""	1	"forehead"	NA	1	111	648	1	0	14
3	3	"C:\Hannah's FYP\White20_smi.jpg"	""	2	"nose"	NA	1	231	463	1	0	14
3	4	"C:\Hannah's FYP\Black48_smi.jpg"	""	1	"nose"	NA	2	132	533	2	0	14
3	5	"C:\Hannah's FYP\White39_smi.jpg"	""	2	"eyes"	NA	2	222	1073	1	1	14
3	6	"C:\Hannah's FYP\White8_smi.jpg"	""	2	"forehead"	NA	1	211	597	1	0	14
3	7	"C:\Hannah's FYP\White26_smi.jpg"	""	2	"forehead"	NA	2	212	470	1	1	14
3	8	"C:\Hannah's FYP\Black41_smi.jpg"	""	1	"nose"	NA	2	132	1636	1	1	14
3	9	"C:\Hannah's FYP\White32_smi.jpg"	""	2	"forehead"	NA	2	212	561	2	0	14
3	10	"C:\Hannah's FYP\Black37_smi.jpg"	""	1	"eyes"	NA	2	122	531	2	0	14
3	11	"C:\Hannah's FYP\White35_smi.jpg"	""	2	"eyes"	NA	2	222	455	2	0	14
3	12	"C:\Hannah's FYP\White1_smi.jpg"	""	2	"forehead"	NA	1	211	438	1	0	14
3	13	"C:\Hannah's FYP\Black17_smi.jpg"	""	1	"nose"	NA	1	131	637	1	0	14
3	14	"C:\Hannah's FYP\White46_smi.jpg"	""	2	"nose"	NA	2	232	772	2	0	14
3	15	"C:\Hannah's FYP\White22_smi.jpg"	""	2	"nose"	NA	1	231	421	1	0	14
3	16	"C:\Hannah's FYP\Black25_smi.jpg"	""	1	"forehead"	NA	2	112	446	1	1	14
3	17	"C:\Hannah's FYP\White5_smi.jpg"	""	2	"forehead"	NA	1	211	573	1	0	14
3	18	"C:\Hannah's FYP\Black23_smi.jpg"	""	1	"nose"	NA	1	131	415	1	0	14
3	19	"C:\Hannah's FYP\White24_smi.jpg"	""	2	"nose"	NA	1	231	392	1	0	14
3	20	"C:\Hannah's FYP\Black46_smi.jpg"	""	1	"nose"	NA	2	132	881	2	0	14
3	21	"C:\Hannah's FYP\White38_smi.jpg"	""	2	"eyes"	NA	2	222	654	1	1	14
3	22	"C:\Hannah's FYP\Black34_smi.jpg"	""	1	"eyes"	NA	2	122	596	2	0	14
3	23	"C:\Hannah's FYP\White6_smi.jpg"	""	2	"forehead"	NA	1	211	349	1	0	14
3	24	"C:\Hannah's FYP\White21_smi.jpg"	""	2	"nose"	NA	1	231	392	1	0	14
3	25	"C:\Hannah's FYP\White9_smi.jpg"	""	2	"eyes"	NA	1	221	306	1	0	14
3	26	"C:\Hannah's FYP\White34_smi.jpg"	""	2	"eyes"	NA	2	222	623	1	1	14
3	27	"C:\Hannah's FYP\Black30_smi.jpg"	""	1	"forehead"	NA	2	112	495	2	0	14
3	28	"C:\Hannah's FYP\Black19_smi.jpg"	""	1	"nose"	NA	1	131	388	1	0	14
3	29	"C:\Hannah's FYP\White23_smi.jpg"	""	2	"nose"	NA	1	231	374	1	0	14
3	30	"C:\Hannah's FYP\White19_smi.jpg"	""	2	"nose"	NA	1	231	376	1	0	14
3	31	"C:\Hannah's FYP\Black9_smi.jpg"	""	1	"eyes"	NA	1	121	435	1	0	14
3	32	"C:\Hannah's FYP\Black47_smi.jpg"	""	1	"nose"	NA	2	132	834	2	0	14
3	33	"C:\Hannah's FYP\Black38_smi.jpg"	""	1	"eyes"	NA	2	122	529	1	1	14
3	34	"C:\Hannah's FYP\Black24_smi.jpg"	""	1	"nose"	NA	1	131	716	2	1	14
3	35	"C:\Hannah's FYP\Black7_smi.jpg"	""	1	"forehead"	NA	1	111	400	1	0	14
3	36	"C:\Hannah's FYP\Black3_smi.jpg"	""	1	"forehead"	NA	1	111	529	1	0	14
3	37	"C:\Hannah's FYP\Black42_smi.jpg"	""	1	"nose"	NA	2	132	517	2	0	14
3	38	"C:\Hannah's FYP\Black16_smi.jpg"	""	1	"eyes"	NA	1	121	1049	1	0	14
3	39	"C:\Hannah's FYP\White31_smi.jpg"	""	2	"forehead"	NA	2	212	423	1	1	14
3	40	"C:\Hannah's FYP\Black2_smi.jpg"	""	1	"forehead"	NA	1	111	599	2	1	14
3	41	"C:\Hannah's FYP\White17_smi.jpg"	""	2	"nose"	NA	1	231	352	1	0	14
3	42	"C:\Hannah's FYP\Black26_smi.jpg"	""	1	"forehead"	NA	2	112	411	2	0	14
3	43	"C:\Hannah's FYP\White13_smi.jpg"	""	2	"eyes"	NA	1	221	780	2	1	14
3	44	"C:\Hannah's FYP\Black45_smi.jpg"	""	1	"nose"	NA	2	132	445	2	0	14
3	45	"C:\Hannah's FYP\White2_smi.jpg"	""	2	"forehead"	NA	1	211	509	1	0	14
3	46	"C:\Hannah's FYP\White30_smi.jpg"	""	2	"forehead"	NA	2	212	529	1	1	14
3	47	"C:\Hannah's FYP\White27_smi.jpg"	""	2	"forehead"	NA	2	212	565	2	0	14
3	48	"C:\Hannah's FYP\White4_smi.jpg"	""	2	"forehead"	NA	1	211	680	2	1	14
3	49	"C:\Hannah's FYP\White18_smi.jpg"	""	2	"nose"	NA	1	231	509	2	1	14
3	50	"C:\Hannah's FYP\Black35_smi.jpg"	""	1	"eyes"	NA	2	122	418	2	0	14
3	51	"C:\Hannah's FYP\Black15_smi.jpg"	""	1	"eyes"	NA	1	121	482	1	0	14
3	52	"C:\Hannah's FYP\Black28_smi.jpg"	""	1	"forehead"	NA	2	112	568	1	1	14
3	53	"C:\Hannah's FYP\Black21_smi.jpg"	""	1	"nose"	NA	1	131	762	2	1	14
3	54	"C:\Hannah's FYP\Black40_smi.jpg"	""	1	"eyes"	NA	2	122	532	2	0	14
3	55	"C:\Hannah's FYP\Black4_smi.jpg"	""	1	"forehead"	NA	1	111	624	2	1	14
3	56	"C:\Hannah's FYP\White37_smi.jpg"	""	2	"eyes"	NA	2	222	407	2	0	14
3	57	"C:\Hannah's FYP\White48_smi.jpg"	""	2	"nose"	NA	2	232	320	1	1	14
3	58	"C:\Hannah's FYP\Black22_smi.jpg"	""	1	"nose"	NA	1	131	493	2	1	14
3	59	"C:\Hannah's FYP\Black44_smi.jpg"	""	1	"nose"	NA	2	132	714	2	0	14
3	60	"C:\Hannah's FYP\Black29_smi.jpg"	""	1	"forehead"	NA	2	112	358	2	0	14
3	61	"C:\Hannah's FYP\White41_smi.jpg"	""	2	"nose"	NA	2	232	609	2	0	14
3	62	"C:\Hannah's FYP\White16_smi.jpg"	""	2	"eyes"	NA	1	221	521	1	0	14
3	63	"C:\Hannah's FYP\Black14_smi.jpg"	""	1	"eyes"	NA	1	121	438	1	0	14
3	64	"C:\Hannah's FYP\White29_smi.jpg"	""	2	"forehead"	NA	2	212	388	2	0	14
3	65	"C:\Hannah's FYP\Black33_smi.jpg"	""	1	"eyes"	NA	2	122	398	2	0	14
3	66	"C:\Hannah's FYP\Black10_smi.jpg"	""	1	"eyes"	NA	1	121	1016	1	0	14
3	67	"C:\Hannah's FYP\Black1_smi.jpg"	""	1	"forehead"	NA	1	111	439	2	1	14
3	68	"C:\Hannah's FYP\White43_smi.jpg"	""	2	"nose"	NA	2	232	390	2	0	14
3	69	"C:\Hannah's FYP\White44_smi.jpg"	""	2	"nose"	NA	2	232	464	2	0	14
3	70	"C:\Hannah's FYP\White36_smi.jpg"	""	2	"eyes"	NA	2	222	535	2	0	14
3	71	"C:\Hannah's FYP\White15_smi.jpg"	""	2	"eyes"	NA	1	221	818	2	1	14
3	72	"C:\Hannah's FYP\White28_smi.jpg"	""	2	"forehead"	NA	2	212	298	2	0	14
3	73	"C:\Hannah's FYP\White42_smi.jpg"	""	2	"nose"	NA	2	232	312	2	0	14
3	74	"C:\Hannah's FYP\Black12_smi.jpg"	""	1	"eyes"	NA	1	121	525	1	0	14
3	75	"C:\Hannah's FYP\White25_smi.jpg"	""	2	"forehead"	NA	2	212	905	2	0	14
3	76	"C:\Hannah's FYP\Black11_smi.jpg"	""	1	"eyes"	NA	1	121	429	1	0	14
3	77	"C:\Hannah's FYP\Black5_smi.jpg"	""	1	"forehead"	NA	1	111	829	2	1	14
3	78	"C:\Hannah's FYP\Black31_smi.jpg"	""	1	"forehead"	NA	2	112	420	2	0	14
3	79	"C:\Hannah's FYP\White40_smi.jpg"	""	2	"eyes"	NA	2	222	396	2	0	14
3	80	"C:\Hannah's FYP\White3_smi.jpg"	""	2	"forehead"	NA	1	211	414	1	0	14
3	81	"C:\Hannah's FYP\White47_smi.jpg"	""	2	"nose"	NA	2	232	431	2	0	14
3	82	"C:\Hannah's FYP\Black27_smi.jpg"	""	1	"forehead"	NA	2	112	1063	2	0	14
3	83	"C:\Hannah's FYP\Black36_smi.jpg"	""	1	"eyes"	NA	2	122	396	2	0	14
3	84	"C:\Hannah's FYP\Black13_smi.jpg"	""	1	"eyes"	NA	1	121	966	1	0	14
3	85	"C:\Hannah's FYP\White10_smi.jpg"	""	2	"eyes"	NA	1	221	487	1	0	14
3	86	"C:\Hannah's FYP\Black18_smi.jpg"	""	1	"nose"	NA	1	131	516	2	1	14
3	87	"C:\Hannah's FYP\White12_smi.jpg"	""	2	"eyes"	NA	1	221	553	1	0	14
3	88	"C:\Hannah's FYP\White33_smi.jpg"	""	2	"eyes"	NA	2	222	491	2	0	14
3	89	"C:\Hannah's FYP\White45_smi.jpg"	""	2	"nose"	NA	2	232	777	1	1	14
3	90	"C:\Hannah's FYP\Black39_smi.jpg"	""	1	"eyes"	NA	2	122	506	2	0	14
3	91	"C:\Hannah's FYP\Black32_smi.jpg"	""	1	"forehead"	NA	2	112	454	2	0	14
3	92	"C:\Hannah's FYP\Black20_smi.jpg"	""	1	"nose"	NA	1	131	813	2	1	14
3	93	"C:\Hannah's FYP\Black43_smi.jpg"	""	1	"nose"	NA	2	132	397	2	0	14
3	94	"C:\Hannah's FYP\White11_smi.jpg"	""	2	"eyes"	NA	1	221	478	1	0	14
3	95	"C:\Hannah's FYP\Black6_smi.jpg"	""	1	"forehead"	NA	1	111	845	1	0	14
3	96	"C:\Hannah's FYP\White7_smi.jpg"	""	2	"forehead"	NA	1	211	547	2	1	14
3	1	"C:\Hannah's FYP\Black13_smi.jpg"	""	1	"eyes"	NA	1	121	1501	1	0	15
3	2	"C:\Hannah's FYP\White12_smi.jpg"	""	2	"eyes"	NA	1	221	687	2	1	15
3	3	"C:\Hannah's FYP\White28_smi.jpg"	""	2	"forehead"	NA	2	212	381	2	0	15
3	4	"C:\Hannah's FYP\White15_smi.jpg"	""	2	"eyes"	NA	1	221	480	1	0	15
3	5	"C:\Hannah's FYP\White48_smi.jpg"	""	2	"nose"	NA	2	232	510	1	1	15
3	6	"C:\Hannah's FYP\White40_smi.jpg"	""	2	"eyes"	NA	2	222	458	2	0	15
3	7	"C:\Hannah's FYP\White18_smi.jpg"	""	2	"nose"	NA	1	231	345	1	0	15
3	8	"C:\Hannah's FYP\White5_smi.jpg"	""	2	"forehead"	NA	1	211	637	1	0	15
3	9	"C:\Hannah's FYP\Black20_smi.jpg"	""	1	"nose"	NA	1	131	460	1	0	15
3	10	"C:\Hannah's FYP\White14_smi.jpg"	""	2	"eyes"	NA	1	221	1034	2	1	15
3	11	"C:\Hannah's FYP\White10_smi.jpg"	""	2	"eyes"	NA	1	221	1193	2	1	15
3	12	"C:\Hannah's FYP\Black6_smi.jpg"	""	1	"forehead"	NA	1	111	824	1	0	15
3	13	"C:\Hannah's FYP\White8_smi.jpg"	""	2	"forehead"	NA	1	211	711	2	1	15
3	14	"C:\Hannah's FYP\Black26_smi.jpg"	""	1	"forehead"	NA	2	112	611	2	0	15
3	15	"C:\Hannah's FYP\Black1_smi.jpg"	""	1	"forehead"	NA	1	111	1340	2	1	15
3	16	"C:\Hannah's FYP\Black4_smi.jpg"	""	1	"forehead"	NA	1	111	1092	2	1	15
3	17	"C:\Hannah's FYP\Black3_smi.jpg"	""	1	"forehead"	NA	1	111	360	1	0	15
3	18	"C:\Hannah's FYP\Black30_smi.jpg"	""	1	"forehead"	NA	2	112	747	1	1	15
3	19	"C:\Hannah's FYP\White33_smi.jpg"	""	2	"eyes"	NA	2	222	485	2	0	15
3	20	"C:\Hannah's FYP\White11_smi.jpg"	""	2	"eyes"	NA	1	221	267	1	0	15
3	21	"C:\Hannah's FYP\Black48_smi.jpg"	""	1	"nose"	NA	2	132	625	1	1	15
3	22	"C:\Hannah's FYP\White27_smi.jpg"	""	2	"forehead"	NA	2	212	433	2	0	15
3	23	"C:\Hannah's FYP\White24_smi.jpg"	""	2	"nose"	NA	1	231	584	2	1	15
3	24	"C:\Hannah's FYP\Black27_smi.jpg"	""	1	"forehead"	NA	2	112	1322	2	0	15
3	25	"C:\Hannah's FYP\Black7_smi.jpg"	""	1	"forehead"	NA	1	111	1107	2	1	15
3	26	"C:\Hannah's FYP\White21_smi.jpg"	""	2	"nose"	NA	1	231	422	1	0	15
3	27	"C:\Hannah's FYP\White2_smi.jpg"	""	2	"forehead"	NA	1	211	414	1	0	15
3	28	"C:\Hannah's FYP\White7_smi.jpg"	""	2	"forehead"	NA	1	211	399	1	0	15
3	29	"C:\Hannah's FYP\Black8_smi.jpg"	""	1	"forehead"	NA	1	111	369	1	0	15
3	30	"C:\Hannah's FYP\White39_smi.jpg"	""	2	"eyes"	NA	2	222	507	2	0	15
3	31	"C:\Hannah's FYP\White16_smi.jpg"	""	2	"eyes"	NA	1	221	800	1	0	15
3	32	"C:\Hannah's FYP\Black24_smi.jpg"	""	1	"nose"	NA	1	131	464	2	1	15
3	33	"C:\Hannah's FYP\White1_smi.jpg"	""	2	"forehead"	NA	1	211	631	2	1	15
3	34	"C:\Hannah's FYP\Black23_smi.jpg"	""	1	"nose"	NA	1	131	494	1	0	15
3	35	"C:\Hannah's FYP\Black28_smi.jpg"	""	1	"forehead"	NA	2	112	644	1	1	15
3	36	"C:\Hannah's FYP\Black47_smi.jpg"	""	1	"nose"	NA	2	132	395	2	0	15
3	37	"C:\Hannah's FYP\Black5_smi.jpg"	""	1	"forehead"	NA	1	111	580	2	1	15
3	38	"C:\Hannah's FYP\White32_smi.jpg"	""	2	"forehead"	NA	2	212	502	2	0	15
3	39	"C:\Hannah's FYP\White22_smi.jpg"	""	2	"nose"	NA	1	231	459	1	0	15
3	40	"C:\Hannah's FYP\White25_smi.jpg"	""	2	"forehead"	NA	2	212	418	2	0	15
3	41	"C:\Hannah's FYP\White45_smi.jpg"	""	2	"nose"	NA	2	232	890	1	1	15
3	42	"C:\Hannah's FYP\Black12_smi.jpg"	""	1	"eyes"	NA	1	121	1038	1	0	15
3	43	"C:\Hannah's FYP\Black36_smi.jpg"	""	1	"eyes"	NA	2	122	892	2	0	15
3	44	"C:\Hannah's FYP\Black17_smi.jpg"	""	1	"nose"	NA	1	131	504	2	1	15
3	45	"C:\Hannah's FYP\White23_smi.jpg"	""	2	"nose"	NA	1	231	268	1	0	15
3	46	"C:\Hannah's FYP\White20_smi.jpg"	""	2	"nose"	NA	1	231	1411	1	0	15
3	47	"C:\Hannah's FYP\Black46_smi.jpg"	""	1	"nose"	NA	2	132	1001	1	1	15
3	48	"C:\Hannah's FYP\White4_smi.jpg"	""	2	"forehead"	NA	1	211	689	2	1	15
3	49	"C:\Hannah's FYP\Black41_smi.jpg"	""	1	"nose"	NA	2	132	462	2	0	15
3	50	"C:\Hannah's FYP\Black34_smi.jpg"	""	1	"eyes"	NA	2	122	668	2	0	15
