"Block"	"Trial"	"FaceFilename"	"WordFilename"	"FaceRace"	"Fix"	"WordValence"	"Condition"	"RT"	"Key"	"Error"	"Subno"	"Congruent"
2	1	"C:\Hannah's FYP\Black22_neu.jpg"	"joy"	"Black"	"nose"	"Pos"	132	1343	2	0	1	"Incon"
2	2	"C:\Hannah's FYP\White15_neu.jpg"	"sewage"	"White"	"eyes"	"Neg"	221	671	1	0	1	"Incon"
2	3	"C:\Hannah's FYP\Black16_neu.jpg"	"despair"	"Black"	"eyes"	"Neg"	121	788	1	0	1	"Con"
2	4	"C:\Hannah's FYP\Black17_neu.jpg"	"despair"	"Black"	"nose"	"Neg"	131	818	1	0	1	"Con"
2	5	"C:\Hannah's FYP\Black9_neu.jpg"	"joy"	"Black"	"eyes"	"Pos"	122	544	2	0	1	"Incon"
2	6	"C:\Hannah's FYP\White9_neu.jpg"	"disgust"	"White"	"eyes"	"Neg"	221	835	1	0	1	"Incon"
2	7	"C:\Hannah's FYP\Black14_neu.jpg"	"cockroach"	"Black"	"eyes"	"Neg"	121	832	1	0	1	"Con"
2	8	"C:\Hannah's FYP\Black2_neu.jpg"	"cockroach"	"Black"	"forehead"	"Neg"	111	639	1	0	1	"Con"
2	9	"C:\Hannah's FYP\Black10_neu.jpg"	"success"	"Black"	"eyes"	"Pos"	122	918	2	0	1	"Incon"
2	10	"C:\Hannah's FYP\White6_neu.jpg"	"disgust"	"White"	"forehead"	"Neg"	211	1848	1	0	1	"Incon"
2	11	"C:\Hannah's FYP\White18_neu.jpg"	"pest"	"White"	"nose"	"Neg"	231	976	1	0	1	"Incon"
2	12	"C:\Hannah's FYP\White21_neu.jpg"	"vomit"	"White"	"nose"	"Neg"	231	717	1	0	1	"Incon"
2	13	"C:\Hannah's FYP\White8_neu.jpg"	"pest"	"White"	"forehead"	"Neg"	211	849	1	0	1	"Incon"
2	14	"C:\Hannah's FYP\Black5_neu.jpg"	"smile"	"Black"	"forehead"	"Pos"	112	1119	2	0	1	"Incon"
2	15	"C:\Hannah's FYP\Black17_neu.jpg"	"pest"	"Black"	"nose"	"Neg"	131	879	1	0	1	"Con"
2	16	"C:\Hannah's FYP\Black17_neu.jpg"	"love"	"Black"	"nose"	"Pos"	132	689	2	0	1	"Incon"
2	17	"C:\Hannah's FYP\White11_neu.jpg"	"garbage"	"White"	"eyes"	"Neg"	221	789	1	0	1	"Incon"
2	18	"C:\Hannah's FYP\Black11_neu.jpg"	"romance"	"Black"	"eyes"	"Pos"	122	2014	2	0	1	"Incon"
2	19	"C:\Hannah's FYP\Black23_neu.jpg"	"poison"	"Black"	"nose"	"Neg"	131	766	1	0	1	"Con"
2	20	"C:\Hannah's FYP\Black11_neu.jpg"	"sewage"	"Black"	"eyes"	"Neg"	121	656	1	0	1	"Con"
2	21	"C:\Hannah's FYP\Black10_neu.jpg"	"poison"	"Black"	"eyes"	"Neg"	121	1278	1	0	1	"Con"
2	22	"C:\Hannah's FYP\White8_neu.jpg"	"success"	"White"	"forehead"	"Pos"	212	738	2	0	1	"Con"
2	23	"C:\Hannah's FYP\Black9_neu.jpg"	"cockroach"	"Black"	"eyes"	"Neg"	121	700	1	0	1	"Con"
2	24	"C:\Hannah's FYP\Black20_neu.jpg"	"poison"	"Black"	"nose"	"Neg"	131	780	1	0	1	"Con"
2	25	"C:\Hannah's FYP\Black9_neu.jpg"	"vacation"	"Black"	"eyes"	"Pos"	122	693	2	0	1	"Incon"
2	26	"C:\Hannah's FYP\White23_neu.jpg"	"vacation"	"White"	"nose"	"Pos"	232	998	2	0	1	"Con"
2	27	"C:\Hannah's FYP\White13_neu.jpg"	"vacation"	"White"	"eyes"	"Pos"	222	654	2	0	1	"Con"
2	28	"C:\Hannah's FYP\Black21_neu.jpg"	"garbage"	"Black"	"nose"	"Neg"	131	664	1	0	1	"Con"
2	29	"C:\Hannah's FYP\White24_neu.jpg"	"cockroach"	"White"	"nose"	"Neg"	231	614	1	0	1	"Incon"
2	30	"C:\Hannah's FYP\White1_neu.jpg"	"disgust"	"White"	"forehead"	"Neg"	211	790	1	0	1	"Incon"
2	31	"C:\Hannah's FYP\White5_neu.jpg"	"romance"	"White"	"forehead"	"Pos"	212	606	2	0	1	"Con"
2	32	"C:\Hannah's FYP\Black6_neu.jpg"	"disgust"	"Black"	"forehead"	"Neg"	111	1399	1	0	1	"Con"
2	33	"C:\Hannah's FYP\White6_neu.jpg"	"love"	"White"	"forehead"	"Pos"	212	669	2	0	1	"Con"
2	34	"C:\Hannah's FYP\Black11_neu.jpg"	"disgust"	"Black"	"eyes"	"Neg"	121	1627	1	0	1	"Con"
2	35	"C:\Hannah's FYP\White24_neu.jpg"	"garbage"	"White"	"nose"	"Neg"	231	727	1	0	1	"Incon"
2	36	"C:\Hannah's FYP\White22_neu.jpg"	"smile"	"White"	"nose"	"Pos"	232	547	2	0	1	"Con"
2	37	"C:\Hannah's FYP\White2_neu.jpg"	"smile"	"White"	"forehead"	"Pos"	212	2060.18353827802	2	0	1	"Con"
2	38	"C:\Hannah's FYP\White18_neu.jpg"	"sewage"	"White"	"nose"	"Neg"	231	868	1	0	1	"Incon"
2	39	"C:\Hannah's FYP\Black12_neu.jpg"	"garbage"	"Black"	"eyes"	"Neg"	121	1441	1	0	1	"Con"
2	40	"C:\Hannah's FYP\Black23_neu.jpg"	"cockroach"	"Black"	"nose"	"Neg"	131	619	1	0	1	"Con"
2	41	"C:\Hannah's FYP\Black12_neu.jpg"	"beauty"	"Black"	"eyes"	"Pos"	122	794	2	0	1	"Incon"
2	42	"C:\Hannah's FYP\Black13_neu.jpg"	"vacation"	"Black"	"eyes"	"Pos"	122	602	2	0	1	"Incon"
2	43	"C:\Hannah's FYP\White6_neu.jpg"	"despair"	"White"	"forehead"	"Neg"	211	842	1	0	1	"Incon"
2	44	"C:\Hannah's FYP\White18_neu.jpg"	"romance"	"White"	"nose"	"Pos"	232	549	2	0	1	"Con"
2	45	"C:\Hannah's FYP\Black3_neu.jpg"	"smile"	"Black"	"forehead"	"Pos"	112	646	2	0	1	"Incon"
2	46	"C:\Hannah's FYP\Black18_neu.jpg"	"vomit"	"Black"	"nose"	"Neg"	131	772	1	0	1	"Con"
2	47	"C:\Hannah's FYP\White9_neu.jpg"	"success"	"White"	"eyes"	"Pos"	222	869	2	0	1	"Con"
2	48	"C:\Hannah's FYP\Black24_neu.jpg"	"love"	"Black"	"nose"	"Pos"	132	487	2	0	1	"Incon"
2	49	"C:\Hannah's FYP\Black22_neu.jpg"	"romance"	"Black"	"nose"	"Pos"	132	569	2	0	1	"Incon"
2	50	"C:\Hannah's FYP\Black13_neu.jpg"	"paradise"	"Black"	"eyes"	"Pos"	122	507	2	0	1	"Incon"
2	51	"C:\Hannah's FYP\White13_neu.jpg"	"poison"	"White"	"eyes"	"Neg"	221	816	1	0	1	"Incon"
2	52	"C:\Hannah's FYP\Black15_neu.jpg"	"vomit"	"Black"	"eyes"	"Neg"	121	647	1	0	1	"Con"
2	53	"C:\Hannah's FYP\White10_neu.jpg"	"paradise"	"White"	"eyes"	"Pos"	222	646	2	0	1	"Con"
2	54	"C:\Hannah's FYP\Black12_neu.jpg"	"love"	"Black"	"eyes"	"Pos"	122	628	2	0	1	"Incon"
2	55	"C:\Hannah's FYP\White20_neu.jpg"	"vacation"	"White"	"nose"	"Pos"	232	720	2	0	1	"Con"
2	56	"C:\Hannah's FYP\White13_neu.jpg"	"disgust"	"White"	"eyes"	"Neg"	221	756	1	0	1	"Incon"
2	57	"C:\Hannah's FYP\White12_neu.jpg"	"smile"	"White"	"eyes"	"Pos"	222	645	2	0	1	"Con"
2	58	"C:\Hannah's FYP\White5_neu.jpg"	"paradise"	"White"	"forehead"	"Pos"	212	572	2	0	1	"Con"
2	59	"C:\Hannah's FYP\Black2_neu.jpg"	"despair"	"Black"	"forehead"	"Neg"	111	702	1	0	1	"Con"
2	60	"C:\Hannah's FYP\White2_neu.jpg"	"cockroach"	"White"	"forehead"	"Neg"	211	778	1	0	1	"Incon"
2	61	"C:\Hannah's FYP\White9_neu.jpg"	"romance"	"White"	"eyes"	"Pos"	222	635	2	0	1	"Con"
2	62	"C:\Hannah's FYP\Black15_neu.jpg"	"garbage"	"Black"	"eyes"	"Neg"	121	730	1	0	1	"Con"
2	63	"C:\Hannah's FYP\Black18_neu.jpg"	"cockroach"	"Black"	"nose"	"Neg"	131	613	1	0	1	"Con"
2	64	"C:\Hannah's FYP\White16_neu.jpg"	"pest"	"White"	"eyes"	"Neg"	221	629	1	0	1	"Incon"
2	65	"C:\Hannah's FYP\Black6_neu.jpg"	"despair"	"Black"	"forehead"	"Neg"	111	596	1	0	1	"Con"
2	66	"C:\Hannah's FYP\White4_neu.jpg"	"beauty"	"White"	"forehead"	"Pos"	212	676	2	0	1	"Con"
2	67	"C:\Hannah's FYP\White5_neu.jpg"	"garbage"	"White"	"forehead"	"Neg"	211	906	1	0	1	"Incon"
2	68	"C:\Hannah's FYP\Black7_neu.jpg"	"vomit"	"Black"	"forehead"	"Neg"	111	603	1	0	1	"Con"
2	69	"C:\Hannah's FYP\White16_neu.jpg"	"success"	"White"	"eyes"	"Pos"	222	683	2	0	1	"Con"
2	70	"C:\Hannah's FYP\White21_neu.jpg"	"sewage"	"White"	"nose"	"Neg"	231	757	1	0	1	"Incon"
2	71	"C:\Hannah's FYP\Black6_neu.jpg"	"vacation"	"Black"	"forehead"	"Pos"	112	543	2	0	1	"Incon"
2	72	"C:\Hannah's FYP\White23_neu.jpg"	"beauty"	"White"	"nose"	"Pos"	232	902	2	0	1	"Con"
2	73	"C:\Hannah's FYP\White7_neu.jpg"	"poison"	"White"	"forehead"	"Neg"	211	618	1	0	1	"Incon"
2	74	"C:\Hannah's FYP\Black2_neu.jpg"	"beauty"	"Black"	"forehead"	"Pos"	112	497	2	0	1	"Incon"
2	75	"C:\Hannah's FYP\Black10_neu.jpg"	"smile"	"Black"	"eyes"	"Pos"	122	639	2	0	1	"Incon"
2	76	"C:\Hannah's FYP\Black19_neu.jpg"	"romance"	"Black"	"nose"	"Pos"	132	582	2	0	1	"Incon"
2	77	"C:\Hannah's FYP\Black4_neu.jpg"	"sewage"	"Black"	"forehead"	"Neg"	111	888	1	0	1	"Con"
2	78	"C:\Hannah's FYP\White10_neu.jpg"	"pest"	"White"	"eyes"	"Neg"	221	868	1	0	1	"Incon"
2	79	"C:\Hannah's FYP\Black15_neu.jpg"	"joy"	"Black"	"eyes"	"Pos"	122	801	2	0	1	"Incon"
2	80	"C:\Hannah's FYP\Black18_neu.jpg"	"paradise"	"Black"	"nose"	"Pos"	132	1593	2	0	1	"Incon"
2	81	"C:\Hannah's FYP\Black24_neu.jpg"	"sewage"	"Black"	"nose"	"Neg"	131	1004	1	0	1	"Con"
2	82	"C:\Hannah's FYP\Black21_neu.jpg"	"paradise"	"Black"	"nose"	"Pos"	132	1375	2	0	1	"Incon"
2	83	"C:\Hannah's FYP\Black1_neu.jpg"	"pest"	"Black"	"forehead"	"Neg"	111	799	1	0	1	"Con"
2	84	"C:\Hannah's FYP\White16_neu.jpg"	"despair"	"White"	"eyes"	"Neg"	221	1295	1	0	1	"Incon"
2	85	"C:\Hannah's FYP\White17_neu.jpg"	"vomit"	"White"	"nose"	"Neg"	231	1858	1	0	1	"Incon"
2	86	"C:\Hannah's FYP\Black14_neu.jpg"	"romance"	"Black"	"eyes"	"Pos"	122	861	2	0	1	"Incon"
2	87	"C:\Hannah's FYP\White11_neu.jpg"	"love"	"White"	"eyes"	"Pos"	222	698	2	0	1	"Con"
2	88	"C:\Hannah's FYP\White6_neu.jpg"	"beauty"	"White"	"forehead"	"Pos"	212	463	2	0	1	"Con"
2	89	"C:\Hannah's FYP\Black12_neu.jpg"	"vomit"	"Black"	"eyes"	"Neg"	121	998	1	0	1	"Con"
2	90	"C:\Hannah's FYP\White19_neu.jpg"	"love"	"White"	"nose"	"Pos"	232	747	2	0	1	"Con"
2	91	"C:\Hannah's FYP\White3_neu.jpg"	"success"	"White"	"forehead"	"Pos"	212	1149	2	0	1	"Con"
2	92	"C:\Hannah's FYP\Black20_neu.jpg"	"joy"	"Black"	"nose"	"Pos"	132	610	2	0	1	"Incon"
2	93	"C:\Hannah's FYP\White12_neu.jpg"	"cockroach"	"White"	"eyes"	"Neg"	221	738	1	0	1	"Incon"
2	94	"C:\Hannah's FYP\Black14_neu.jpg"	"sewage"	"Black"	"eyes"	"Neg"	121	652	1	0	1	"Con"
2	95	"C:\Hannah's FYP\Black22_neu.jpg"	"vomit"	"Black"	"nose"	"Neg"	131	592	1	0	1	"Con"
2	96	"C:\Hannah's FYP\White12_neu.jpg"	"beauty"	"White"	"eyes"	"Pos"	222	641	2	0	1	"Con"
2	97	"C:\Hannah's FYP\White13_neu.jpg"	"paradise"	"White"	"eyes"	"Pos"	222	640	2	0	1	"Con"
2	98	"C:\Hannah's FYP\White8_neu.jpg"	"sewage"	"White"	"forehead"	"Neg"	211	1495	1	0	1	"Incon"
2	99	"C:\Hannah's FYP\Black23_neu.jpg"	"smile"	"Black"	"nose"	"Pos"	132	502	2	0	1	"Incon"
2	100	"C:\Hannah's FYP\White4_neu.jpg"	"love"	"White"	"forehead"	"Pos"	212	1835	2	0	1	"Con"
2	101	"C:\Hannah's FYP\White15_neu.jpg"	"romance"	"White"	"eyes"	"Pos"	222	543	2	0	1	"Con"
2	102	"C:\Hannah's FYP\Black13_neu.jpg"	"poison"	"Black"	"eyes"	"Neg"	121	546	1	0	1	"Con"
2	103	"C:\Hannah's FYP\White3_neu.jpg"	"romance"	"White"	"forehead"	"Pos"	212	733	2	0	1	"Con"
2	104	"C:\Hannah's FYP\White14_neu.jpg"	"garbage"	"White"	"eyes"	"Neg"	221	653	1	0	1	"Incon"
2	105	"C:\Hannah's FYP\Black22_neu.jpg"	"pest"	"Black"	"nose"	"Neg"	131	2060.18353827802	1	0	1	"Con"
2	106	"C:\Hannah's FYP\White2_neu.jpg"	"sewage"	"White"	"forehead"	"Neg"	211	534	1	0	1	"Incon"
2	107	"C:\Hannah's FYP\White7_neu.jpg"	"joy"	"White"	"forehead"	"Pos"	212	754	2	0	1	"Con"
2	108	"C:\Hannah's FYP\Black24_neu.jpg"	"despair"	"Black"	"nose"	"Neg"	131	633	1	0	1	"Con"
2	109	"C:\Hannah's FYP\Black1_neu.jpg"	"romance"	"Black"	"forehead"	"Pos"	112	824	2	0	1	"Incon"
2	110	"C:\Hannah's FYP\White14_neu.jpg"	"cockroach"	"White"	"eyes"	"Neg"	221	700	1	0	1	"Incon"
2	111	"C:\Hannah's FYP\White10_neu.jpg"	"poison"	"White"	"eyes"	"Neg"	221	744	1	0	1	"Incon"
2	112	"C:\Hannah's FYP\White19_neu.jpg"	"poison"	"White"	"nose"	"Neg"	231	728	1	0	1	"Incon"
2	113	"C:\Hannah's FYP\Black8_neu.jpg"	"cockroach"	"Black"	"forehead"	"Neg"	111	745	1	0	1	"Con"
2	114	"C:\Hannah's FYP\Black23_neu.jpg"	"beauty"	"Black"	"nose"	"Pos"	132	593	2	0	1	"Incon"
2	115	"C:\Hannah's FYP\Black19_neu.jpg"	"sewage"	"Black"	"nose"	"Neg"	131	642	1	0	1	"Con"
2	116	"C:\Hannah's FYP\Black4_neu.jpg"	"vacation"	"Black"	"forehead"	"Pos"	112	873	2	0	1	"Incon"
2	117	"C:\Hannah's FYP\Black19_neu.jpg"	"beauty"	"Black"	"nose"	"Pos"	132	510	2	0	1	"Incon"
2	118	"C:\Hannah's FYP\Black7_neu.jpg"	"sewage"	"Black"	"forehead"	"Neg"	111	2060.18353827802	1	0	1	"Con"
2	119	"C:\Hannah's FYP\White8_neu.jpg"	"smile"	"White"	"forehead"	"Pos"	212	554	2	0	1	"Con"
2	120	"C:\Hannah's FYP\White19_neu.jpg"	"smile"	"White"	"nose"	"Pos"	232	562	2	0	1	"Con"
2	121	"C:\Hannah's FYP\Black16_neu.jpg"	"smile"	"Black"	"eyes"	"Pos"	122	644	2	0	1	"Incon"
2	122	"C:\Hannah's FYP\Black20_neu.jpg"	"disgust"	"Black"	"nose"	"Neg"	131	559	1	0	1	"Con"
2	123	"C:\Hannah's FYP\White11_neu.jpg"	"sewage"	"White"	"eyes"	"Neg"	221	633	1	0	1	"Incon"
2	124	"C:\Hannah's FYP\White1_neu.jpg"	"vacation"	"White"	"forehead"	"Pos"	212	601	2	0	1	"Con"
2	125	"C:\Hannah's FYP\White2_neu.jpg"	"joy"	"White"	"forehead"	"Pos"	212	609	2	0	1	"Con"
2	126	"C:\Hannah's FYP\Black5_neu.jpg"	"poison"	"Black"	"forehead"	"Neg"	111	466	1	0	1	"Con"
2	127	"C:\Hannah's FYP\White14_neu.jpg"	"joy"	"White"	"eyes"	"Pos"	222	821	2	0	1	"Con"
2	128	"C:\Hannah's FYP\Black4_neu.jpg"	"poison"	"Black"	"forehead"	"Neg"	111	612	1	0	1	"Con"
2	129	"C:\Hannah's FYP\White11_neu.jpg"	"joy"	"White"	"eyes"	"Pos"	222	796	2	0	1	"Con"
2	130	"C:\Hannah's FYP\White20_neu.jpg"	"garbage"	"White"	"nose"	"Neg"	231	673	1	0	1	"Incon"
2	131	"C:\Hannah's FYP\Black6_neu.jpg"	"success"	"Black"	"forehead"	"Pos"	112	2060.18353827802	2	0	1	"Incon"
2	132	"C:\Hannah's FYP\White3_neu.jpg"	"despair"	"White"	"forehead"	"Neg"	211	564	1	0	1	"Incon"
2	133	"C:\Hannah's FYP\Black15_neu.jpg"	"love"	"Black"	"eyes"	"Pos"	122	462	2	0	1	"Incon"
2	134	"C:\Hannah's FYP\White15_neu.jpg"	"beauty"	"White"	"eyes"	"Pos"	222	581	2	0	1	"Con"
2	135	"C:\Hannah's FYP\Black16_neu.jpg"	"success"	"Black"	"eyes"	"Pos"	122	2060.18353827802	2	0	1	"Incon"
2	136	"C:\Hannah's FYP\Black5_neu.jpg"	"pest"	"Black"	"forehead"	"Neg"	111	646	1	0	1	"Con"
2	137	"C:\Hannah's FYP\White14_neu.jpg"	"love"	"White"	"eyes"	"Pos"	222	585	2	0	1	"Con"
2	138	"C:\Hannah's FYP\Black9_neu.jpg"	"despair"	"Black"	"eyes"	"Neg"	121	562	1	0	1	"Con"
2	139	"C:\Hannah's FYP\White10_neu.jpg"	"vacation"	"White"	"eyes"	"Pos"	222	605	2	0	1	"Con"
2	140	"C:\Hannah's FYP\White24_neu.jpg"	"love"	"White"	"nose"	"Pos"	232	2060.18353827802	2	0	1	"Con"
2	141	"C:\Hannah's FYP\White5_neu.jpg"	"cockroach"	"White"	"forehead"	"Neg"	211	732	1	0	1	"Incon"
2	142	"C:\Hannah's FYP\White17_neu.jpg"	"disgust"	"White"	"nose"	"Neg"	231	519	1	0	1	"Incon"
2	143	"C:\Hannah's FYP\White20_neu.jpg"	"cockroach"	"White"	"nose"	"Neg"	231	592	1	0	1	"Incon"
2	144	"C:\Hannah's FYP\Black2_neu.jpg"	"success"	"Black"	"forehead"	"Pos"	112	521	2	0	1	"Incon"
2	145	"C:\Hannah's FYP\Black5_neu.jpg"	"love"	"Black"	"forehead"	"Pos"	112	933	1	1	1	"Incon"
2	146	"C:\Hannah's FYP\Black21_neu.jpg"	"disgust"	"Black"	"nose"	"Neg"	131	1684	1	0	1	"Con"
2	147	"C:\Hannah's FYP\White22_neu.jpg"	"romance"	"White"	"nose"	"Pos"	232	503	2	0	1	"Con"
2	148	"C:\Hannah's FYP\White19_neu.jpg"	"despair"	"White"	"nose"	"Neg"	231	896	1	0	1	"Incon"
2	149	"C:\Hannah's FYP\Black14_neu.jpg"	"beauty"	"Black"	"eyes"	"Pos"	122	1180	2	0	1	"Incon"
2	150	"C:\Hannah's FYP\Black20_neu.jpg"	"vacation"	"Black"	"nose"	"Pos"	132	536	2	0	1	"Incon"
2	151	"C:\Hannah's FYP\White17_neu.jpg"	"success"	"White"	"nose"	"Pos"	232	611	2	0	1	"Con"
2	152	"C:\Hannah's FYP\White23_neu.jpg"	"poison"	"White"	"nose"	"Neg"	231	592	1	0	1	"Incon"
2	153	"C:\Hannah's FYP\Black8_neu.jpg"	"beauty"	"Black"	"forehead"	"Pos"	112	607	2	0	1	"Incon"
2	154	"C:\Hannah's FYP\White7_neu.jpg"	"vacation"	"White"	"forehead"	"Pos"	212	703	2	0	1	"Con"
2	155	"C:\Hannah's FYP\Black3_neu.jpg"	"love"	"Black"	"forehead"	"Pos"	112	674	2	0	1	"Incon"
2	156	"C:\Hannah's FYP\Black21_neu.jpg"	"success"	"Black"	"nose"	"Pos"	132	644	2	0	1	"Incon"
2	157	"C:\Hannah's FYP\White22_neu.jpg"	"pest"	"White"	"nose"	"Neg"	231	907	1	0	1	"Incon"
2	158	"C:\Hannah's FYP\White20_neu.jpg"	"joy"	"White"	"nose"	"Pos"	232	1203	2	0	1	"Con"
2	159	"C:\Hannah's FYP\Black1_neu.jpg"	"vomit"	"Black"	"forehead"	"Neg"	111	1169	1	0	1	"Con"
2	160	"C:\Hannah's FYP\Black10_neu.jpg"	"pest"	"Black"	"eyes"	"Neg"	121	641	1	0	1	"Con"
2	161	"C:\Hannah's FYP\Black13_neu.jpg"	"disgust"	"Black"	"eyes"	"Neg"	121	960	1	0	1	"Con"
2	162	"C:\Hannah's FYP\Black4_neu.jpg"	"joy"	"Black"	"forehead"	"Pos"	112	889	2	0	1	"Incon"
2	163	"C:\Hannah's FYP\White21_neu.jpg"	"joy"	"White"	"nose"	"Pos"	232	570	2	0	1	"Con"
2	164	"C:\Hannah's FYP\Black16_neu.jpg"	"pest"	"Black"	"eyes"	"Neg"	121	644	1	0	1	"Con"
2	165	"C:\Hannah's FYP\White23_neu.jpg"	"despair"	"White"	"nose"	"Neg"	231	862	1	0	1	"Incon"
2	166	"C:\Hannah's FYP\White1_neu.jpg"	"pest"	"White"	"forehead"	"Neg"	211	652	1	0	1	"Incon"
2	167	"C:\Hannah's FYP\Black19_neu.jpg"	"garbage"	"Black"	"nose"	"Neg"	131	1746	1	0	1	"Con"
2	168	"C:\Hannah's FYP\Black8_neu.jpg"	"romance"	"Black"	"forehead"	"Pos"	112	1463	2	0	1	"Incon"
2	169	"C:\Hannah's FYP\White12_neu.jpg"	"vomit"	"White"	"eyes"	"Neg"	221	723	1	0	1	"Incon"
2	170	"C:\Hannah's FYP\White16_neu.jpg"	"smile"	"White"	"eyes"	"Pos"	222	502	2	0	1	"Con"
2	171	"C:\Hannah's FYP\Black18_neu.jpg"	"success"	"Black"	"nose"	"Pos"	132	867	2	0	1	"Incon"
2	172	"C:\Hannah's FYP\White24_neu.jpg"	"paradise"	"White"	"nose"	"Pos"	232	1384	2	0	1	"Con"
2	173	"C:\Hannah's FYP\White1_neu.jpg"	"paradise"	"White"	"forehead"	"Pos"	212	480	2	0	1	"Con"
2	174	"C:\Hannah's FYP\White4_neu.jpg"	"poison"	"White"	"forehead"	"Neg"	211	734	1	0	1	"Incon"
2	175	"C:\Hannah's FYP\Black17_neu.jpg"	"smile"	"Black"	"nose"	"Pos"	132	575	2	0	1	"Incon"
2	176	"C:\Hannah's FYP\Black3_neu.jpg"	"disgust"	"Black"	"forehead"	"Neg"	111	904	1	0	1	"Con"
2	177	"C:\Hannah's FYP\Black24_neu.jpg"	"vacation"	"Black"	"nose"	"Pos"	132	1137	2	0	1	"Incon"
2	178	"C:\Hannah's FYP\White17_neu.jpg"	"beauty"	"White"	"nose"	"Pos"	232	498	2	0	1	"Con"
2	179	"C:\Hannah's FYP\Black11_neu.jpg"	"paradise"	"Black"	"eyes"	"Pos"	122	727	2	0	1	"Incon"
2	180	"C:\Hannah's FYP\White18_neu.jpg"	"paradise"	"White"	"nose"	"Pos"	232	503	2	0	1	"Con"
2	181	"C:\Hannah's FYP\White9_neu.jpg"	"despair"	"White"	"eyes"	"Neg"	221	1156	1	0	1	"Incon"
2	182	"C:\Hannah's FYP\White3_neu.jpg"	"garbage"	"White"	"forehead"	"Neg"	211	908	1	0	1	"Incon"
2	183	"C:\Hannah's FYP\White15_neu.jpg"	"vomit"	"White"	"eyes"	"Neg"	221	776	1	0	1	"Incon"
2	184	"C:\Hannah's FYP\Black7_neu.jpg"	"joy"	"Black"	"forehead"	"Pos"	112	1023	2	0	1	"Incon"
2	185	"C:\Hannah's FYP\Black1_neu.jpg"	"paradise"	"Black"	"forehead"	"Pos"	112	1205	2	0	1	"Incon"
2	186	"C:\Hannah's FYP\White7_neu.jpg"	"vomit"	"White"	"forehead"	"Neg"	211	620	1	0	1	"Incon"
2	187	"C:\Hannah's FYP\Black8_neu.jpg"	"garbage"	"Black"	"forehead"	"Neg"	111	1465	1	0	1	"Con"
2	188	"C:\Hannah's FYP\Black3_neu.jpg"	"garbage"	"Black"	"forehead"	"Neg"	111	548	1	0	1	"Con"
2	189	"C:\Hannah's FYP\Black7_neu.jpg"	"paradise"	"Black"	"forehead"	"Pos"	112	861	2	0	1	"Incon"
2	190	"C:\Hannah's FYP\White21_neu.jpg"	"success"	"White"	"nose"	"Pos"	232	823	2	0	1	"Con"
2	191	"C:\Hannah's FYP\White4_neu.jpg"	"vomit"	"White"	"forehead"	"Neg"	211	565	1	0	1	"Incon"
2	192	"C:\Hannah's FYP\White22_neu.jpg"	"disgust"	"White"	"nose"	"Neg"	231	904	1	0	1	"Incon"
2	1	"C:\Hannah's FYP\Black13_neu.jpg"	"poison"	"Black"	"eyes"	"Neg"	121	1953.78977498633	1	0	2	"Con"
2	2	"C:\Hannah's FYP\Black2_neu.jpg"	"romance"	"Black"	"forehead"	"Pos"	112	1953.78977498633	2	0	2	"Incon"
2	3	"C:\Hannah's FYP\White5_neu.jpg"	"love"	"White"	"forehead"	"Pos"	212	1953.78977498633	2	0	2	"Con"
2	4	"C:\Hannah's FYP\White9_neu.jpg"	"vacation"	"White"	"eyes"	"Pos"	222	1004	2	0	2	"Con"
2	5	"C:\Hannah's FYP\Black16_neu.jpg"	"vomit"	"Black"	"eyes"	"Neg"	121	1059	1	0	2	"Con"
2	6	"C:\Hannah's FYP\White15_neu.jpg"	"joy"	"White"	"eyes"	"Pos"	222	1953.78977498633	2	0	2	"Con"
2	7	"C:\Hannah's FYP\Black4_neu.jpg"	"beauty"	"Black"	"forehead"	"Pos"	112	582	2	0	2	"Incon"
2	8	"C:\Hannah's FYP\White16_neu.jpg"	"vomit"	"White"	"eyes"	"Neg"	221	743	1	0	2	"Incon"
2	9	"C:\Hannah's FYP\Black19_neu.jpg"	"joy"	"Black"	"nose"	"Pos"	132	586	2	0	2	"Incon"
2	10	"C:\Hannah's FYP\White13_neu.jpg"	"beauty"	"White"	"eyes"	"Pos"	222	474	1	1	2	"Con"
2	11	"C:\Hannah's FYP\White3_neu.jpg"	"poison"	"White"	"forehead"	"Neg"	211	375	2	1	2	"Incon"
2	12	"C:\Hannah's FYP\White21_neu.jpg"	"love"	"White"	"nose"	"Pos"	232	1485	2	0	2	"Con"
2	13	"C:\Hannah's FYP\Black19_neu.jpg"	"cockroach"	"Black"	"nose"	"Neg"	131	888	1	0	2	"Con"
2	14	"C:\Hannah's FYP\Black15_neu.jpg"	"vacation"	"Black"	"eyes"	"Pos"	122	813	2	0	2	"Incon"
2	15	"C:\Hannah's FYP\White3_neu.jpg"	"success"	"White"	"forehead"	"Pos"	212	764	2	0	2	"Con"
2	16	"C:\Hannah's FYP\Black8_neu.jpg"	"beauty"	"Black"	"forehead"	"Pos"	112	628	2	0	2	"Incon"
2	17	"C:\Hannah's FYP\Black24_neu.jpg"	"cockroach"	"Black"	"nose"	"Neg"	131	497	1	0	2	"Con"
2	18	"C:\Hannah's FYP\Black12_neu.jpg"	"garbage"	"Black"	"eyes"	"Neg"	121	462	1	0	2	"Con"
2	19	"C:\Hannah's FYP\Black22_neu.jpg"	"garbage"	"Black"	"nose"	"Neg"	131	242	1	0	2	"Con"
2	20	"C:\Hannah's FYP\Black4_neu.jpg"	"vacation"	"Black"	"forehead"	"Pos"	112	530	2	0	2	"Incon"
2	21	"C:\Hannah's FYP\Black8_neu.jpg"	"smile"	"Black"	"forehead"	"Pos"	112	468	2	0	2	"Incon"
2	22	"C:\Hannah's FYP\Black6_neu.jpg"	"vacation"	"Black"	"forehead"	"Pos"	112	530	1	1	2	"Incon"
2	23	"C:\Hannah's FYP\White3_neu.jpg"	"paradise"	"White"	"forehead"	"Pos"	212	294	2	0	2	"Con"
2	24	"C:\Hannah's FYP\Black3_neu.jpg"	"love"	"Black"	"forehead"	"Pos"	112	426	2	0	2	"Incon"
2	25	"C:\Hannah's FYP\White16_neu.jpg"	"romance"	"White"	"eyes"	"Pos"	222	530	2	0	2	"Con"
2	26	"C:\Hannah's FYP\Black9_neu.jpg"	"despair"	"Black"	"eyes"	"Neg"	121	197	2	1	2	"Con"
2	27	"C:\Hannah's FYP\White14_neu.jpg"	"vacation"	"White"	"eyes"	"Pos"	222	316	1	1	2	"Con"
2	28	"C:\Hannah's FYP\Black21_neu.jpg"	"romance"	"Black"	"nose"	"Pos"	132	397	2	0	2	"Incon"
2	29	"C:\Hannah's FYP\Black19_neu.jpg"	"pest"	"Black"	"nose"	"Neg"	131	454	2	1	2	"Con"
2	30	"C:\Hannah's FYP\Black21_neu.jpg"	"sewage"	"Black"	"nose"	"Neg"	131	970	1	0	2	"Con"
2	31	"C:\Hannah's FYP\White5_neu.jpg"	"beauty"	"White"	"forehead"	"Pos"	212	483	2	0	2	"Con"
2	32	"C:\Hannah's FYP\Black18_neu.jpg"	"vomit"	"Black"	"nose"	"Neg"	131	760	1	0	2	"Con"
2	33	"C:\Hannah's FYP\Black17_neu.jpg"	"disgust"	"Black"	"nose"	"Neg"	131	608	1	0	2	"Con"
2	34	"C:\Hannah's FYP\Black18_neu.jpg"	"garbage"	"Black"	"nose"	"Neg"	131	664	1	0	2	"Con"
2	35	"C:\Hannah's FYP\White11_neu.jpg"	"vomit"	"White"	"eyes"	"Neg"	221	325	2	1	2	"Incon"
2	36	"C:\Hannah's FYP\White14_neu.jpg"	"pest"	"White"	"eyes"	"Neg"	221	566	1	0	2	"Incon"
2	37	"C:\Hannah's FYP\White7_neu.jpg"	"joy"	"White"	"forehead"	"Pos"	212	560	2	0	2	"Con"
2	38	"C:\Hannah's FYP\Black6_neu.jpg"	"vomit"	"Black"	"forehead"	"Neg"	111	467	1	0	2	"Con"
2	39	"C:\Hannah's FYP\White14_neu.jpg"	"despair"	"White"	"eyes"	"Neg"	221	406	1	0	2	"Incon"
2	40	"C:\Hannah's FYP\White8_neu.jpg"	"romance"	"White"	"forehead"	"Pos"	212	63	2	0	2	"Con"
2	41	"C:\Hannah's FYP\White7_neu.jpg"	"despair"	"White"	"forehead"	"Neg"	211	167	1	0	2	"Incon"
2	42	"C:\Hannah's FYP\Black8_neu.jpg"	"cockroach"	"Black"	"forehead"	"Neg"	111	328	2	1	2	"Con"
2	43	"C:\Hannah's FYP\White16_neu.jpg"	"garbage"	"White"	"eyes"	"Neg"	221	500	1	0	2	"Incon"
2	44	"C:\Hannah's FYP\White18_neu.jpg"	"pest"	"White"	"nose"	"Neg"	231	461	1	0	2	"Incon"
2	45	"C:\Hannah's FYP\Black21_neu.jpg"	"smile"	"Black"	"nose"	"Pos"	132	264	1	1	2	"Incon"
2	46	"C:\Hannah's FYP\White2_neu.jpg"	"despair"	"White"	"forehead"	"Neg"	211	544	1	0	2	"Incon"
2	47	"C:\Hannah's FYP\White12_neu.jpg"	"success"	"White"	"eyes"	"Pos"	222	593	2	0	2	"Con"
2	48	"C:\Hannah's FYP\Black10_neu.jpg"	"vomit"	"Black"	"eyes"	"Neg"	121	306	1	0	2	"Con"
2	49	"C:\Hannah's FYP\Black20_neu.jpg"	"despair"	"Black"	"nose"	"Neg"	131	171	1	0	2	"Con"
2	50	"C:\Hannah's FYP\Black20_neu.jpg"	"love"	"Black"	"nose"	"Pos"	132	153	1	1	2	"Incon"
2	51	"C:\Hannah's FYP\Black24_neu.jpg"	"despair"	"Black"	"nose"	"Neg"	131	170	1	0	2	"Con"
2	52	"C:\Hannah's FYP\Black11_neu.jpg"	"cockroach"	"Black"	"eyes"	"Neg"	121	557	1	0	2	"Con"
2	53	"C:\Hannah's FYP\Black23_neu.jpg"	"love"	"Black"	"nose"	"Pos"	132	213	1	1	2	"Incon"
2	54	"C:\Hannah's FYP\White4_neu.jpg"	"beauty"	"White"	"forehead"	"Pos"	212	214	2	0	2	"Con"
2	55	"C:\Hannah's FYP\Black12_neu.jpg"	"poison"	"Black"	"eyes"	"Neg"	121	560	1	0	2	"Con"
2	56	"C:\Hannah's FYP\Black17_neu.jpg"	"beauty"	"Black"	"nose"	"Pos"	132	360	1	1	2	"Incon"
2	57	"C:\Hannah's FYP\White23_neu.jpg"	"beauty"	"White"	"nose"	"Pos"	232	527	2	0	2	"Con"
2	58	"C:\Hannah's FYP\White10_neu.jpg"	"joy"	"White"	"eyes"	"Pos"	222	611	2	0	2	"Con"
2	59	"C:\Hannah's FYP\Black11_neu.jpg"	"romance"	"Black"	"eyes"	"Pos"	122	403	2	0	2	"Incon"
2	60	"C:\Hannah's FYP\White24_neu.jpg"	"poison"	"White"	"nose"	"Neg"	231	364	1	0	2	"Incon"
2	61	"C:\Hannah's FYP\White2_neu.jpg"	"love"	"White"	"forehead"	"Pos"	212	327	1	1	2	"Con"
2	62	"C:\Hannah's FYP\White8_neu.jpg"	"poison"	"White"	"forehead"	"Neg"	211	148	2	1	2	"Incon"
2	63	"C:\Hannah's FYP\Black23_neu.jpg"	"pest"	"Black"	"nose"	"Neg"	131	317	1	0	2	"Con"
2	64	"C:\Hannah's FYP\Black14_neu.jpg"	"pest"	"Black"	"eyes"	"Neg"	121	554	1	0	2	"Con"
2	65	"C:\Hannah's FYP\White23_neu.jpg"	"disgust"	"White"	"nose"	"Neg"	231	593	1	0	2	"Incon"
2	66	"C:\Hannah's FYP\White6_neu.jpg"	"garbage"	"White"	"forehead"	"Neg"	211	649	1	0	2	"Incon"
2	67	"C:\Hannah's FYP\White16_neu.jpg"	"paradise"	"White"	"eyes"	"Pos"	222	616	2	0	2	"Con"
2	68	"C:\Hannah's FYP\White18_neu.jpg"	"paradise"	"White"	"nose"	"Pos"	232	605	2	0	2	"Con"
2	69	"C:\Hannah's FYP\Black13_neu.jpg"	"smile"	"Black"	"eyes"	"Pos"	122	309	1	1	2	"Incon"
2	70	"C:\Hannah's FYP\Black5_neu.jpg"	"pest"	"Black"	"forehead"	"Neg"	111	298	2	1	2	"Con"
2	71	"C:\Hannah's FYP\White13_neu.jpg"	"sewage"	"White"	"eyes"	"Neg"	221	1032	1	0	2	"Incon"
2	72	"C:\Hannah's FYP\Black20_neu.jpg"	"success"	"Black"	"nose"	"Pos"	132	226	1	1	2	"Incon"
2	73	"C:\Hannah's FYP\White7_neu.jpg"	"vacation"	"White"	"forehead"	"Pos"	212	723	2	0	2	"Con"
2	74	"C:\Hannah's FYP\Black11_neu.jpg"	"sewage"	"Black"	"eyes"	"Neg"	121	406	2	1	2	"Con"
2	75	"C:\Hannah's FYP\White18_neu.jpg"	"garbage"	"White"	"nose"	"Neg"	231	244	1	0	2	"Incon"
2	76	"C:\Hannah's FYP\Black4_neu.jpg"	"poison"	"Black"	"forehead"	"Neg"	111	220	2	1	2	"Con"
2	77	"C:\Hannah's FYP\Black3_neu.jpg"	"disgust"	"Black"	"forehead"	"Neg"	111	859	1	0	2	"Con"
2	78	"C:\Hannah's FYP\Black16_neu.jpg"	"love"	"Black"	"eyes"	"Pos"	122	338	1	1	2	"Incon"
2	79	"C:\Hannah's FYP\White21_neu.jpg"	"success"	"White"	"nose"	"Pos"	232	234	1	1	2	"Con"
2	80	"C:\Hannah's FYP\White20_neu.jpg"	"beauty"	"White"	"nose"	"Pos"	232	494	2	0	2	"Con"
2	81	"C:\Hannah's FYP\White24_neu.jpg"	"romance"	"White"	"nose"	"Pos"	232	755	2	0	2	"Con"
2	82	"C:\Hannah's FYP\White12_neu.jpg"	"garbage"	"White"	"eyes"	"Neg"	221	565	1	0	2	"Incon"
2	83	"C:\Hannah's FYP\White4_neu.jpg"	"garbage"	"White"	"forehead"	"Neg"	211	127	2	1	2	"Incon"
2	84	"C:\Hannah's FYP\Black24_neu.jpg"	"vacation"	"Black"	"nose"	"Pos"	132	210	1	1	2	"Incon"
2	85	"C:\Hannah's FYP\White10_neu.jpg"	"romance"	"White"	"eyes"	"Pos"	222	251	2	0	2	"Con"
2	86	"C:\Hannah's FYP\White22_neu.jpg"	"sewage"	"White"	"nose"	"Neg"	231	66	2	1	2	"Incon"
2	87	"C:\Hannah's FYP\White5_neu.jpg"	"vomit"	"White"	"forehead"	"Neg"	211	290	2	1	2	"Incon"
2	88	"C:\Hannah's FYP\White11_neu.jpg"	"love"	"White"	"eyes"	"Pos"	222	584	2	0	2	"Con"
2	89	"C:\Hannah's FYP\Black3_neu.jpg"	"smile"	"Black"	"forehead"	"Pos"	112	327	1	1	2	"Incon"
2	90	"C:\Hannah's FYP\Black5_neu.jpg"	"romance"	"Black"	"forehead"	"Pos"	112	508	2	0	2	"Incon"
2	91	"C:\Hannah's FYP\White11_neu.jpg"	"paradise"	"White"	"eyes"	"Pos"	222	408	2	0	2	"Con"
2	92	"C:\Hannah's FYP\Black14_neu.jpg"	"beauty"	"Black"	"eyes"	"Pos"	122	369	2	0	2	"Incon"
2	93	"C:\Hannah's FYP\Black9_neu.jpg"	"love"	"Black"	"eyes"	"Pos"	122	220	2	0	2	"Incon"
2	94	"C:\Hannah's FYP\White2_neu.jpg"	"pest"	"White"	"forehead"	"Neg"	211	245	2	1	2	"Incon"
2	95	"C:\Hannah's FYP\Black5_neu.jpg"	"poison"	"Black"	"forehead"	"Neg"	111	389	2	1	2	"Con"
2	96	"C:\Hannah's FYP\White4_neu.jpg"	"disgust"	"White"	"forehead"	"Neg"	211	222	2	1	2	"Incon"
2	97	"C:\Hannah's FYP\Black2_neu.jpg"	"paradise"	"Black"	"forehead"	"Pos"	112	0	0	1	2	"Incon"
2	98	"C:\Hannah's FYP\Black7_neu.jpg"	"sewage"	"Black"	"forehead"	"Neg"	111	438	1	0	2	"Con"
2	99	"C:\Hannah's FYP\White3_neu.jpg"	"cockroach"	"White"	"forehead"	"Neg"	211	302	2	1	2	"Incon"
2	100	"C:\Hannah's FYP\White15_neu.jpg"	"disgust"	"White"	"eyes"	"Neg"	221	523	1	0	2	"Incon"
2	101	"C:\Hannah's FYP\Black23_neu.jpg"	"beauty"	"Black"	"nose"	"Pos"	132	460	1	1	2	"Incon"
2	102	"C:\Hannah's FYP\Black10_neu.jpg"	"disgust"	"Black"	"eyes"	"Neg"	121	331	2	1	2	"Con"
2	103	"C:\Hannah's FYP\White17_neu.jpg"	"vacation"	"White"	"nose"	"Pos"	232	439	1	1	2	"Con"
2	104	"C:\Hannah's FYP\Black1_neu.jpg"	"cockroach"	"Black"	"forehead"	"Neg"	111	567	1	0	2	"Con"
2	105	"C:\Hannah's FYP\Black15_neu.jpg"	"romance"	"Black"	"eyes"	"Pos"	122	553	1	1	2	"Incon"
2	106	"C:\Hannah's FYP\White21_neu.jpg"	"vomit"	"White"	"nose"	"Neg"	231	584	1	0	2	"Incon"
2	107	"C:\Hannah's FYP\White9_neu.jpg"	"beauty"	"White"	"eyes"	"Pos"	222	769	2	0	2	"Con"
2	108	"C:\Hannah's FYP\Black15_neu.jpg"	"despair"	"Black"	"eyes"	"Neg"	121	458	1	0	2	"Con"
2	109	"C:\Hannah's FYP\White24_neu.jpg"	"pest"	"White"	"nose"	"Neg"	231	360	1	0	2	"Incon"
2	110	"C:\Hannah's FYP\Black9_neu.jpg"	"smile"	"Black"	"eyes"	"Pos"	122	396	2	0	2	"Incon"
2	111	"C:\Hannah's FYP\White8_neu.jpg"	"success"	"White"	"forehead"	"Pos"	212	373	2	0	2	"Con"
2	112	"C:\Hannah's FYP\White2_neu.jpg"	"vacation"	"White"	"forehead"	"Pos"	212	616	2	0	2	"Con"
2	113	"C:\Hannah's FYP\White19_neu.jpg"	"despair"	"White"	"nose"	"Neg"	231	564	1	0	2	"Incon"
2	114	"C:\Hannah's FYP\White22_neu.jpg"	"smile"	"White"	"nose"	"Pos"	232	383	2	0	2	"Con"
2	115	"C:\Hannah's FYP\White13_neu.jpg"	"smile"	"White"	"eyes"	"Pos"	222	569	2	0	2	"Con"
2	116	"C:\Hannah's FYP\White10_neu.jpg"	"pest"	"White"	"eyes"	"Neg"	221	594	1	0	2	"Incon"
2	117	"C:\Hannah's FYP\White19_neu.jpg"	"disgust"	"White"	"nose"	"Neg"	231	472	1	0	2	"Incon"
2	118	"C:\Hannah's FYP\Black16_neu.jpg"	"disgust"	"Black"	"eyes"	"Neg"	121	263	1	0	2	"Con"
2	119	"C:\Hannah's FYP\White23_neu.jpg"	"despair"	"White"	"nose"	"Neg"	231	378	1	0	2	"Incon"
2	120	"C:\Hannah's FYP\Black16_neu.jpg"	"success"	"Black"	"eyes"	"Pos"	122	157	1	1	2	"Incon"
2	121	"C:\Hannah's FYP\Black12_neu.jpg"	"beauty"	"Black"	"eyes"	"Pos"	122	744	2	0	2	"Incon"
2	122	"C:\Hannah's FYP\Black6_neu.jpg"	"despair"	"Black"	"forehead"	"Neg"	111	235	1	0	2	"Con"
2	123	"C:\Hannah's FYP\White10_neu.jpg"	"sewage"	"White"	"eyes"	"Neg"	221	427	1	0	2	"Incon"
2	124	"C:\Hannah's FYP\White15_neu.jpg"	"poison"	"White"	"eyes"	"Neg"	221	884	1	0	2	"Incon"
2	125	"C:\Hannah's FYP\Black22_neu.jpg"	"success"	"Black"	"nose"	"Pos"	132	582	2	0	2	"Incon"
2	126	"C:\Hannah's FYP\Black13_neu.jpg"	"sewage"	"Black"	"eyes"	"Neg"	121	456	1	0	2	"Con"
2	127	"C:\Hannah's FYP\White1_neu.jpg"	"sewage"	"White"	"forehead"	"Neg"	211	222	2	1	2	"Incon"
2	128	"C:\Hannah's FYP\White17_neu.jpg"	"sewage"	"White"	"nose"	"Neg"	231	279	1	0	2	"Incon"
2	129	"C:\Hannah's FYP\White5_neu.jpg"	"disgust"	"White"	"forehead"	"Neg"	211	742	1	0	2	"Incon"
2	130	"C:\Hannah's FYP\White20_neu.jpg"	"cockroach"	"White"	"nose"	"Neg"	231	325	1	0	2	"Incon"
2	131	"C:\Hannah's FYP\Black10_neu.jpg"	"joy"	"Black"	"eyes"	"Pos"	122	249	1	1	2	"Incon"
2	132	"C:\Hannah's FYP\Black21_neu.jpg"	"poison"	"Black"	"nose"	"Neg"	131	222	1	0	2	"Con"
2	133	"C:\Hannah's FYP\Black14_neu.jpg"	"joy"	"Black"	"eyes"	"Pos"	122	903	2	0	2	"Incon"
2	134	"C:\Hannah's FYP\Black17_neu.jpg"	"vacation"	"Black"	"nose"	"Pos"	132	336	1	1	2	"Incon"
2	135	"C:\Hannah's FYP\Black2_neu.jpg"	"vomit"	"Black"	"forehead"	"Neg"	111	908	2	1	2	"Con"
2	136	"C:\Hannah's FYP\Black7_neu.jpg"	"garbage"	"Black"	"forehead"	"Neg"	111	285	1	0	2	"Con"
2	137	"C:\Hannah's FYP\Black7_neu.jpg"	"paradise"	"Black"	"forehead"	"Pos"	112	681	2	0	2	"Incon"
2	138	"C:\Hannah's FYP\White8_neu.jpg"	"pest"	"White"	"forehead"	"Neg"	211	278	2	1	2	"Incon"
2	139	"C:\Hannah's FYP\White12_neu.jpg"	"cockroach"	"White"	"eyes"	"Neg"	221	533	1	0	2	"Incon"
2	140	"C:\Hannah's FYP\Black1_neu.jpg"	"success"	"Black"	"forehead"	"Pos"	112	1049	2	0	2	"Incon"
2	141	"C:\Hannah's FYP\Black4_neu.jpg"	"garbage"	"Black"	"forehead"	"Neg"	111	311	2	1	2	"Con"
2	142	"C:\Hannah's FYP\White12_neu.jpg"	"smile"	"White"	"eyes"	"Pos"	222	284	1	1	2	"Con"
2	143	"C:\Hannah's FYP\White6_neu.jpg"	"smile"	"White"	"forehead"	"Pos"	212	642	2	0	2	"Con"
2	144	"C:\Hannah's FYP\Black13_neu.jpg"	"paradise"	"Black"	"eyes"	"Pos"	122	273	1	1	2	"Incon"
2	145	"C:\Hannah's FYP\Black7_neu.jpg"	"love"	"Black"	"forehead"	"Pos"	112	621	2	0	2	"Incon"
2	146	"C:\Hannah's FYP\White17_neu.jpg"	"success"	"White"	"nose"	"Pos"	232	213	1	1	2	"Con"
2	147	"C:\Hannah's FYP\White20_neu.jpg"	"vomit"	"White"	"nose"	"Neg"	231	291	1	0	2	"Incon"
2	148	"C:\Hannah's FYP\Black11_neu.jpg"	"success"	"Black"	"eyes"	"Pos"	122	521	2	0	2	"Incon"
2	149	"C:\Hannah's FYP\Black23_neu.jpg"	"disgust"	"Black"	"nose"	"Neg"	131	202	1	0	2	"Con"
2	150	"C:\Hannah's FYP\White6_neu.jpg"	"cockroach"	"White"	"forehead"	"Neg"	211	547	1	0	2	"Incon"
2	151	"C:\Hannah's FYP\White24_neu.jpg"	"vacation"	"White"	"nose"	"Pos"	232	319	1	1	2	"Con"
2	152	"C:\Hannah's FYP\Black1_neu.jpg"	"sewage"	"Black"	"forehead"	"Neg"	111	587	1	0	2	"Con"
2	153	"C:\Hannah's FYP\White21_neu.jpg"	"cockroach"	"White"	"nose"	"Neg"	231	153	1	0	2	"Incon"
2	154	"C:\Hannah's FYP\Black19_neu.jpg"	"paradise"	"Black"	"nose"	"Pos"	132	308	2	0	2	"Incon"
2	155	"C:\Hannah's FYP\Black24_neu.jpg"	"paradise"	"Black"	"nose"	"Pos"	132	311	2	0	2	"Incon"
2	156	"C:\Hannah's FYP\Black2_neu.jpg"	"despair"	"Black"	"forehead"	"Neg"	111	349	2	1	2	"Con"
2	157	"C:\Hannah's FYP\Black18_neu.jpg"	"smile"	"Black"	"nose"	"Pos"	132	240	1	1	2	"Incon"
2	158	"C:\Hannah's FYP\Black5_neu.jpg"	"success"	"Black"	"forehead"	"Pos"	112	304	2	0	2	"Incon"
2	159	"C:\Hannah's FYP\Black6_neu.jpg"	"joy"	"Black"	"forehead"	"Pos"	112	270	2	0	2	"Incon"
2	160	"C:\Hannah's FYP\White9_neu.jpg"	"despair"	"White"	"eyes"	"Neg"	221	156	2	1	2	"Incon"
2	161	"C:\Hannah's FYP\White22_neu.jpg"	"paradise"	"White"	"nose"	"Pos"	232	320	2	0	2	"Con"
2	162	"C:\Hannah's FYP\Black8_neu.jpg"	"disgust"	"Black"	"forehead"	"Neg"	111	826	1	0	2	"Con"
2	163	"C:\Hannah's FYP\White15_neu.jpg"	"success"	"White"	"eyes"	"Pos"	222	193	1	1	2	"Con"
2	164	"C:\Hannah's FYP\White4_neu.jpg"	"romance"	"White"	"forehead"	"Pos"	212	292	2	0	2	"Con"
2	165	"C:\Hannah's FYP\White1_neu.jpg"	"vomit"	"White"	"forehead"	"Neg"	211	209	2	1	2	"Incon"
2	166	"C:\Hannah's FYP\White18_neu.jpg"	"love"	"White"	"nose"	"Pos"	232	264	1	1	2	"Con"
2	167	"C:\Hannah's FYP\White6_neu.jpg"	"paradise"	"White"	"forehead"	"Pos"	212	495	2	0	2	"Con"
2	168	"C:\Hannah's FYP\White14_neu.jpg"	"love"	"White"	"eyes"	"Pos"	222	257	2	0	2	"Con"
2	169	"C:\Hannah's FYP\Black3_neu.jpg"	"pest"	"Black"	"forehead"	"Neg"	111	551	1	0	2	"Con"
2	170	"C:\Hannah's FYP\White22_neu.jpg"	"garbage"	"White"	"nose"	"Neg"	231	313	2	1	2	"Incon"
2	171	"C:\Hannah's FYP\White17_neu.jpg"	"poison"	"White"	"nose"	"Neg"	231	526	1	0	2	"Incon"
2	172	"C:\Hannah's FYP\Black18_neu.jpg"	"romance"	"Black"	"nose"	"Pos"	132	282	1	1	2	"Incon"
2	173	"C:\Hannah's FYP\Black20_neu.jpg"	"poison"	"Black"	"nose"	"Neg"	131	509	1	0	2	"Con"
2	174	"C:\Hannah's FYP\White11_neu.jpg"	"disgust"	"White"	"eyes"	"Neg"	221	297	2	1	2	"Incon"
2	175	"C:\Hannah's FYP\Black22_neu.jpg"	"vomit"	"Black"	"nose"	"Neg"	131	277	1	0	2	"Con"
2	176	"C:\Hannah's FYP\Black15_neu.jpg"	"garbage"	"Black"	"eyes"	"Neg"	121	404	1	0	2	"Con"
2	177	"C:\Hannah's FYP\Black10_neu.jpg"	"paradise"	"Black"	"eyes"	"Pos"	122	1029	1	1	2	"Incon"
2	178	"C:\Hannah's FYP\Black12_neu.jpg"	"vacation"	"Black"	"eyes"	"Pos"	122	539	2	0	2	"Incon"
2	179	"C:\Hannah's FYP\Black22_neu.jpg"	"joy"	"Black"	"nose"	"Pos"	132	452	2	0	2	"Incon"
2	180	"C:\Hannah's FYP\White1_neu.jpg"	"smile"	"White"	"forehead"	"Pos"	212	171	2	0	2	"Con"
2	181	"C:\Hannah's FYP\Black1_neu.jpg"	"joy"	"Black"	"forehead"	"Pos"	112	310	2	0	2	"Incon"
2	182	"C:\Hannah's FYP\White19_neu.jpg"	"smile"	"White"	"nose"	"Pos"	232	392	2	0	2	"Con"
2	183	"C:\Hannah's FYP\White9_neu.jpg"	"poison"	"White"	"eyes"	"Neg"	221	98	2	1	2	"Incon"
2	184	"C:\Hannah's FYP\Black17_neu.jpg"	"sewage"	"Black"	"nose"	"Neg"	131	230	1	0	2	"Con"
2	185	"C:\Hannah's FYP\White20_neu.jpg"	"romance"	"White"	"nose"	"Pos"	232	148	1	1	2	"Con"
2	186	"C:\Hannah's FYP\Black14_neu.jpg"	"cockroach"	"Black"	"eyes"	"Neg"	121	480	1	0	2	"Con"
2	187	"C:\Hannah's FYP\Black9_neu.jpg"	"pest"	"Black"	"eyes"	"Neg"	121	238	2	1	2	"Con"
2	188	"C:\Hannah's FYP\White13_neu.jpg"	"cockroach"	"White"	"eyes"	"Neg"	221	278	1	0	2	"Incon"
2	189	"C:\Hannah's FYP\White23_neu.jpg"	"joy"	"White"	"nose"	"Pos"	232	265	1	1	2	"Con"
2	190	"C:\Hannah's FYP\White19_neu.jpg"	"joy"	"White"	"nose"	"Pos"	232	590	2	0	2	"Con"
2	191	"C:\Hannah's FYP\White7_neu.jpg"	"sewage"	"White"	"forehead"	"Neg"	211	391	1	0	2	"Incon"
2	192	"C:\Hannah's FYP\White1_neu.jpg"	"joy"	"White"	"forehead"	"Pos"	212	232	2	0	2	"Con"
2	1	"C:\Hannah's FYP\White10_neu.jpg"	"paradise"	"White"	"eyes"	"Pos"	222	824	2	0	3	"Con"
2	2	"C:\Hannah's FYP\White23_neu.jpg"	"beauty"	"White"	"nose"	"Pos"	232	563	2	0	3	"Con"
2	3	"C:\Hannah's FYP\White3_neu.jpg"	"disgust"	"White"	"forehead"	"Neg"	211	694	1	0	3	"Incon"
2	4	"C:\Hannah's FYP\White23_neu.jpg"	"success"	"White"	"nose"	"Pos"	232	510	2	0	3	"Con"
2	5	"C:\Hannah's FYP\White15_neu.jpg"	"romance"	"White"	"eyes"	"Pos"	222	827	2	0	3	"Con"
2	6	"C:\Hannah's FYP\Black19_neu.jpg"	"paradise"	"Black"	"nose"	"Pos"	132	642	2	0	3	"Incon"
2	7	"C:\Hannah's FYP\Black17_neu.jpg"	"vacation"	"Black"	"nose"	"Pos"	132	542	2	0	3	"Incon"
2	8	"C:\Hannah's FYP\White19_neu.jpg"	"smile"	"White"	"nose"	"Pos"	232	519	2	0	3	"Con"
2	9	"C:\Hannah's FYP\Black1_neu.jpg"	"beauty"	"Black"	"forehead"	"Pos"	112	475	2	0	3	"Incon"
2	10	"C:\Hannah's FYP\White18_neu.jpg"	"poison"	"White"	"nose"	"Neg"	231	661	1	0	3	"Incon"
2	11	"C:\Hannah's FYP\Black4_neu.jpg"	"disgust"	"Black"	"forehead"	"Neg"	111	747	1	0	3	"Con"
2	12	"C:\Hannah's FYP\White10_neu.jpg"	"vomit"	"White"	"eyes"	"Neg"	221	638	1	0	3	"Incon"
2	13	"C:\Hannah's FYP\Black7_neu.jpg"	"vomit"	"Black"	"forehead"	"Neg"	111	675	1	0	3	"Con"
2	14	"C:\Hannah's FYP\Black16_neu.jpg"	"romance"	"Black"	"eyes"	"Pos"	122	536	2	0	3	"Incon"
2	15	"C:\Hannah's FYP\White17_neu.jpg"	"cockroach"	"White"	"nose"	"Neg"	231	611	1	0	3	"Incon"
2	16	"C:\Hannah's FYP\Black14_neu.jpg"	"despair"	"Black"	"eyes"	"Neg"	121	868	1	0	3	"Con"
2	17	"C:\Hannah's FYP\Black21_neu.jpg"	"cockroach"	"Black"	"nose"	"Neg"	131	733	1	0	3	"Con"
2	18	"C:\Hannah's FYP\Black11_neu.jpg"	"vacation"	"Black"	"eyes"	"Pos"	122	752	2	0	3	"Incon"
2	19	"C:\Hannah's FYP\White23_neu.jpg"	"pest"	"White"	"nose"	"Neg"	231	510	1	0	3	"Incon"
2	20	"C:\Hannah's FYP\Black16_neu.jpg"	"beauty"	"Black"	"eyes"	"Pos"	122	498	2	0	3	"Incon"
2	21	"C:\Hannah's FYP\Black11_neu.jpg"	"despair"	"Black"	"eyes"	"Neg"	121	696	1	0	3	"Con"
2	22	"C:\Hannah's FYP\Black19_neu.jpg"	"sewage"	"Black"	"nose"	"Neg"	131	708	1	0	3	"Con"
2	23	"C:\Hannah's FYP\White22_neu.jpg"	"smile"	"White"	"nose"	"Pos"	232	512	2	0	3	"Con"
2	24	"C:\Hannah's FYP\Black4_neu.jpg"	"paradise"	"Black"	"forehead"	"Pos"	112	549	2	0	3	"Incon"
2	25	"C:\Hannah's FYP\White20_neu.jpg"	"pest"	"White"	"nose"	"Neg"	231	557	1	0	3	"Incon"
2	26	"C:\Hannah's FYP\White4_neu.jpg"	"joy"	"White"	"forehead"	"Pos"	212	471	2	0	3	"Con"
2	27	"C:\Hannah's FYP\White12_neu.jpg"	"garbage"	"White"	"eyes"	"Neg"	221	597	1	0	3	"Incon"
2	28	"C:\Hannah's FYP\Black5_neu.jpg"	"smile"	"Black"	"forehead"	"Pos"	112	566	2	0	3	"Incon"
2	29	"C:\Hannah's FYP\White16_neu.jpg"	"success"	"White"	"eyes"	"Pos"	222	697	2	0	3	"Con"
2	30	"C:\Hannah's FYP\Black9_neu.jpg"	"romance"	"Black"	"eyes"	"Pos"	122	886	2	0	3	"Incon"
2	31	"C:\Hannah's FYP\Black23_neu.jpg"	"success"	"Black"	"nose"	"Pos"	132	735	2	0	3	"Incon"
2	32	"C:\Hannah's FYP\Black13_neu.jpg"	"vomit"	"Black"	"eyes"	"Neg"	121	713	1	0	3	"Con"
2	33	"C:\Hannah's FYP\White23_neu.jpg"	"despair"	"White"	"nose"	"Neg"	231	689	1	0	3	"Incon"
2	34	"C:\Hannah's FYP\Black21_neu.jpg"	"vacation"	"Black"	"nose"	"Pos"	132	618	2	0	3	"Incon"
2	35	"C:\Hannah's FYP\Black15_neu.jpg"	"poison"	"Black"	"eyes"	"Neg"	121	786	1	0	3	"Con"
2	36	"C:\Hannah's FYP\White5_neu.jpg"	"love"	"White"	"forehead"	"Pos"	212	498	2	0	3	"Con"
2	37	"C:\Hannah's FYP\White8_neu.jpg"	"sewage"	"White"	"forehead"	"Neg"	211	664	1	0	3	"Incon"
2	38	"C:\Hannah's FYP\White2_neu.jpg"	"beauty"	"White"	"forehead"	"Pos"	212	646	2	0	3	"Con"
2	39	"C:\Hannah's FYP\White2_neu.jpg"	"paradise"	"White"	"forehead"	"Pos"	212	629	2	0	3	"Con"
2	40	"C:\Hannah's FYP\Black15_neu.jpg"	"love"	"Black"	"eyes"	"Pos"	122	636	2	0	3	"Incon"
2	41	"C:\Hannah's FYP\Black23_neu.jpg"	"vomit"	"Black"	"nose"	"Neg"	131	752	1	0	3	"Con"
2	42	"C:\Hannah's FYP\White21_neu.jpg"	"vacation"	"White"	"nose"	"Pos"	232	759	2	0	3	"Con"
2	43	"C:\Hannah's FYP\Black2_neu.jpg"	"smile"	"Black"	"forehead"	"Pos"	112	1056	2	0	3	"Incon"
2	44	"C:\Hannah's FYP\Black24_neu.jpg"	"pest"	"Black"	"nose"	"Neg"	131	755	1	0	3	"Con"
2	45	"C:\Hannah's FYP\White20_neu.jpg"	"disgust"	"White"	"nose"	"Neg"	231	857	1	0	3	"Incon"
2	46	"C:\Hannah's FYP\White7_neu.jpg"	"vacation"	"White"	"forehead"	"Pos"	212	758	2	0	3	"Con"
2	47	"C:\Hannah's FYP\Black23_neu.jpg"	"despair"	"Black"	"nose"	"Neg"	131	605	1	0	3	"Con"
2	48	"C:\Hannah's FYP\White15_neu.jpg"	"pest"	"White"	"eyes"	"Neg"	221	966	1	0	3	"Incon"
2	49	"C:\Hannah's FYP\Black20_neu.jpg"	"love"	"Black"	"nose"	"Pos"	132	627	2	0	3	"Incon"
2	50	"C:\Hannah's FYP\Black2_neu.jpg"	"cockroach"	"Black"	"forehead"	"Neg"	111	666	1	0	3	"Con"
2	51	"C:\Hannah's FYP\Black2_neu.jpg"	"pest"	"Black"	"forehead"	"Neg"	111	569	1	0	3	"Con"
2	52	"C:\Hannah's FYP\Black9_neu.jpg"	"smile"	"Black"	"eyes"	"Pos"	122	402	2	0	3	"Incon"
2	53	"C:\Hannah's FYP\Black21_neu.jpg"	"love"	"Black"	"nose"	"Pos"	132	592	1	1	3	"Incon"
2	54	"C:\Hannah's FYP\White22_neu.jpg"	"disgust"	"White"	"nose"	"Neg"	231	649	1	0	3	"Incon"
2	55	"C:\Hannah's FYP\White12_neu.jpg"	"smile"	"White"	"eyes"	"Pos"	222	520	2	0	3	"Con"
2	56	"C:\Hannah's FYP\White22_neu.jpg"	"paradise"	"White"	"nose"	"Pos"	232	460	2	0	3	"Con"
2	57	"C:\Hannah's FYP\Black6_neu.jpg"	"vacation"	"Black"	"forehead"	"Pos"	112	610	2	0	3	"Incon"
2	58	"C:\Hannah's FYP\Black7_neu.jpg"	"love"	"Black"	"forehead"	"Pos"	112	696	2	0	3	"Incon"
2	59	"C:\Hannah's FYP\Black24_neu.jpg"	"sewage"	"Black"	"nose"	"Neg"	131	890	1	0	3	"Con"
2	60	"C:\Hannah's FYP\Black3_neu.jpg"	"romance"	"Black"	"forehead"	"Pos"	112	525	2	0	3	"Incon"
2	61	"C:\Hannah's FYP\White14_neu.jpg"	"despair"	"White"	"eyes"	"Neg"	221	509	1	0	3	"Incon"
2	62	"C:\Hannah's FYP\White17_neu.jpg"	"joy"	"White"	"nose"	"Pos"	232	450	2	0	3	"Con"
2	63	"C:\Hannah's FYP\Black19_neu.jpg"	"romance"	"Black"	"nose"	"Pos"	132	505	2	0	3	"Incon"
2	64	"C:\Hannah's FYP\Black9_neu.jpg"	"garbage"	"Black"	"eyes"	"Neg"	121	589	1	0	3	"Con"
2	65	"C:\Hannah's FYP\White1_neu.jpg"	"despair"	"White"	"forehead"	"Neg"	211	742	1	0	3	"Incon"
2	66	"C:\Hannah's FYP\White4_neu.jpg"	"sewage"	"White"	"forehead"	"Neg"	211	585	1	0	3	"Incon"
2	67	"C:\Hannah's FYP\White12_neu.jpg"	"pest"	"White"	"eyes"	"Neg"	221	626	1	0	3	"Incon"
2	68	"C:\Hannah's FYP\White22_neu.jpg"	"poison"	"White"	"nose"	"Neg"	231	754	1	0	3	"Incon"
2	69	"C:\Hannah's FYP\Black15_neu.jpg"	"cockroach"	"Black"	"eyes"	"Neg"	121	539	1	0	3	"Con"
2	70	"C:\Hannah's FYP\Black1_neu.jpg"	"poison"	"Black"	"forehead"	"Neg"	111	887	1	0	3	"Con"
2	71	"C:\Hannah's FYP\White14_neu.jpg"	"paradise"	"White"	"eyes"	"Pos"	222	703	2	0	3	"Con"
2	72	"C:\Hannah's FYP\White4_neu.jpg"	"cockroach"	"White"	"forehead"	"Neg"	211	595	1	0	3	"Incon"
2	73	"C:\Hannah's FYP\Black12_neu.jpg"	"love"	"Black"	"eyes"	"Pos"	122	668	2	0	3	"Incon"
2	74	"C:\Hannah's FYP\Black7_neu.jpg"	"beauty"	"Black"	"forehead"	"Pos"	112	592	2	0	3	"Incon"
2	75	"C:\Hannah's FYP\Black20_neu.jpg"	"pest"	"Black"	"nose"	"Neg"	131	900	1	0	3	"Con"
2	76	"C:\Hannah's FYP\Black5_neu.jpg"	"disgust"	"Black"	"forehead"	"Neg"	111	953	1	0	3	"Con"
2	77	"C:\Hannah's FYP\Black20_neu.jpg"	"poison"	"Black"	"nose"	"Neg"	131	949	1	0	3	"Con"
2	78	"C:\Hannah's FYP\Black14_neu.jpg"	"paradise"	"Black"	"eyes"	"Pos"	122	792	2	0	3	"Incon"
2	79	"C:\Hannah's FYP\White9_neu.jpg"	"cockroach"	"White"	"eyes"	"Neg"	221	960	1	0	3	"Incon"
2	80	"C:\Hannah's FYP\Black10_neu.jpg"	"sewage"	"Black"	"eyes"	"Neg"	121	753	1	0	3	"Con"
2	81	"C:\Hannah's FYP\Black4_neu.jpg"	"sewage"	"Black"	"forehead"	"Neg"	111	659	1	0	3	"Con"
2	82	"C:\Hannah's FYP\White3_neu.jpg"	"garbage"	"White"	"forehead"	"Neg"	211	649	1	0	3	"Incon"
2	83	"C:\Hannah's FYP\White15_neu.jpg"	"beauty"	"White"	"eyes"	"Pos"	222	600	2	0	3	"Con"
2	84	"C:\Hannah's FYP\White18_neu.jpg"	"sewage"	"White"	"nose"	"Neg"	231	990	1	0	3	"Incon"
2	85	"C:\Hannah's FYP\White6_neu.jpg"	"despair"	"White"	"forehead"	"Neg"	211	637	1	0	3	"Incon"
2	86	"C:\Hannah's FYP\Black17_neu.jpg"	"vomit"	"Black"	"nose"	"Neg"	131	546	1	0	3	"Con"
2	87	"C:\Hannah's FYP\White19_neu.jpg"	"beauty"	"White"	"nose"	"Pos"	232	539	2	0	3	"Con"
2	88	"C:\Hannah's FYP\Black6_neu.jpg"	"cockroach"	"Black"	"forehead"	"Neg"	111	830	1	0	3	"Con"
2	89	"C:\Hannah's FYP\Black18_neu.jpg"	"joy"	"Black"	"nose"	"Pos"	132	701	2	0	3	"Incon"
2	90	"C:\Hannah's FYP\Black17_neu.jpg"	"garbage"	"Black"	"nose"	"Neg"	131	903	1	0	3	"Con"
2	91	"C:\Hannah's FYP\Black3_neu.jpg"	"vomit"	"Black"	"forehead"	"Neg"	111	1209	1	0	3	"Con"
2	92	"C:\Hannah's FYP\White11_neu.jpg"	"disgust"	"White"	"eyes"	"Neg"	221	615	1	0	3	"Incon"
2	93	"C:\Hannah's FYP\Black12_neu.jpg"	"success"	"Black"	"eyes"	"Pos"	122	599	2	0	3	"Incon"
2	94	"C:\Hannah's FYP\White5_neu.jpg"	"disgust"	"White"	"forehead"	"Neg"	211	648	1	0	3	"Incon"
2	95	"C:\Hannah's FYP\Black12_neu.jpg"	"cockroach"	"Black"	"eyes"	"Neg"	121	511	1	0	3	"Con"
2	96	"C:\Hannah's FYP\White8_neu.jpg"	"pest"	"White"	"forehead"	"Neg"	211	524	1	0	3	"Incon"
2	97	"C:\Hannah's FYP\White16_neu.jpg"	"sewage"	"White"	"eyes"	"Neg"	221	720	1	0	3	"Incon"
2	98	"C:\Hannah's FYP\Black8_neu.jpg"	"joy"	"Black"	"forehead"	"Pos"	112	577	2	0	3	"Incon"
2	99	"C:\Hannah's FYP\White13_neu.jpg"	"vomit"	"White"	"eyes"	"Neg"	221	611	1	0	3	"Incon"
2	100	"C:\Hannah's FYP\White24_neu.jpg"	"joy"	"White"	"nose"	"Pos"	232	539	2	0	3	"Con"
2	101	"C:\Hannah's FYP\White5_neu.jpg"	"poison"	"White"	"forehead"	"Neg"	211	758	1	0	3	"Incon"
2	102	"C:\Hannah's FYP\Black4_neu.jpg"	"vacation"	"Black"	"forehead"	"Pos"	112	808	2	0	3	"Incon"
2	103	"C:\Hannah's FYP\Black6_neu.jpg"	"success"	"Black"	"forehead"	"Pos"	112	760	2	0	3	"Incon"
2	104	"C:\Hannah's FYP\White1_neu.jpg"	"vacation"	"White"	"forehead"	"Pos"	212	730	2	0	3	"Con"
2	105	"C:\Hannah's FYP\White17_neu.jpg"	"despair"	"White"	"nose"	"Neg"	231	757	1	0	3	"Incon"
2	106	"C:\Hannah's FYP\White7_neu.jpg"	"cockroach"	"White"	"forehead"	"Neg"	211	1087	1	0	3	"Incon"
2	107	"C:\Hannah's FYP\White3_neu.jpg"	"smile"	"White"	"forehead"	"Pos"	212	602	2	0	3	"Con"
2	108	"C:\Hannah's FYP\White6_neu.jpg"	"joy"	"White"	"forehead"	"Pos"	212	715	1	1	3	"Con"
2	109	"C:\Hannah's FYP\Black9_neu.jpg"	"pest"	"Black"	"eyes"	"Neg"	121	751	1	0	3	"Con"
2	110	"C:\Hannah's FYP\Black8_neu.jpg"	"sewage"	"Black"	"forehead"	"Neg"	111	847	1	0	3	"Con"
2	111	"C:\Hannah's FYP\Black11_neu.jpg"	"disgust"	"Black"	"eyes"	"Neg"	121	349	2	1	3	"Con"
2	112	"C:\Hannah's FYP\Black16_neu.jpg"	"disgust"	"Black"	"eyes"	"Neg"	121	1065	1	0	3	"Con"
2	113	"C:\Hannah's FYP\Black10_neu.jpg"	"beauty"	"Black"	"eyes"	"Pos"	122	1908.2227783838	2	0	3	"Incon"
2	114	"C:\Hannah's FYP\Black11_neu.jpg"	"joy"	"Black"	"eyes"	"Pos"	122	597	2	0	3	"Incon"
2	115	"C:\Hannah's FYP\White13_neu.jpg"	"joy"	"White"	"eyes"	"Pos"	222	526	2	0	3	"Con"
2	116	"C:\Hannah's FYP\Black2_neu.jpg"	"success"	"Black"	"forehead"	"Pos"	112	578	2	0	3	"Incon"
2	117	"C:\Hannah's FYP\Black20_neu.jpg"	"beauty"	"Black"	"nose"	"Pos"	132	567	2	0	3	"Incon"
2	118	"C:\Hannah's FYP\White19_neu.jpg"	"vomit"	"White"	"nose"	"Neg"	231	486	1	0	3	"Incon"
2	119	"C:\Hannah's FYP\White16_neu.jpg"	"love"	"White"	"eyes"	"Pos"	222	1908.2227783838	2	0	3	"Con"
2	120	"C:\Hannah's FYP\White16_neu.jpg"	"disgust"	"White"	"eyes"	"Neg"	221	1908.2227783838	1	0	3	"Incon"
2	121	"C:\Hannah's FYP\White7_neu.jpg"	"smile"	"White"	"forehead"	"Pos"	212	856	2	0	3	"Con"
2	122	"C:\Hannah's FYP\White3_neu.jpg"	"love"	"White"	"forehead"	"Pos"	212	590	1	1	3	"Con"
2	123	"C:\Hannah's FYP\White12_neu.jpg"	"vacation"	"White"	"eyes"	"Pos"	222	623	2	0	3	"Con"
2	124	"C:\Hannah's FYP\White6_neu.jpg"	"paradise"	"White"	"forehead"	"Pos"	212	566	2	0	3	"Con"
2	125	"C:\Hannah's FYP\White18_neu.jpg"	"romance"	"White"	"nose"	"Pos"	232	725	2	0	3	"Con"
2	126	"C:\Hannah's FYP\White5_neu.jpg"	"romance"	"White"	"forehead"	"Pos"	212	560	2	0	3	"Con"
2	127	"C:\Hannah's FYP\Black17_neu.jpg"	"success"	"Black"	"nose"	"Pos"	132	857	2	0	3	"Incon"
2	128	"C:\Hannah's FYP\White14_neu.jpg"	"smile"	"White"	"eyes"	"Pos"	222	1043	2	0	3	"Con"
2	129	"C:\Hannah's FYP\White2_neu.jpg"	"pest"	"White"	"forehead"	"Neg"	211	1120	1	0	3	"Incon"
2	130	"C:\Hannah's FYP\Black22_neu.jpg"	"beauty"	"Black"	"nose"	"Pos"	132	784	2	0	3	"Incon"
2	131	"C:\Hannah's FYP\Black6_neu.jpg"	"despair"	"Black"	"forehead"	"Neg"	111	953	1	0	3	"Con"
2	132	"C:\Hannah's FYP\White24_neu.jpg"	"romance"	"White"	"nose"	"Pos"	232	690	2	0	3	"Con"
2	133	"C:\Hannah's FYP\White10_neu.jpg"	"love"	"White"	"eyes"	"Pos"	222	767	2	0	3	"Con"
2	134	"C:\Hannah's FYP\Black18_neu.jpg"	"disgust"	"Black"	"nose"	"Neg"	131	577	1	0	3	"Con"
2	135	"C:\Hannah's FYP\Black8_neu.jpg"	"paradise"	"Black"	"forehead"	"Pos"	112	1040	2	0	3	"Incon"
2	136	"C:\Hannah's FYP\Black15_neu.jpg"	"joy"	"Black"	"eyes"	"Pos"	122	478	2	0	3	"Incon"
2	137	"C:\Hannah's FYP\White2_neu.jpg"	"poison"	"White"	"forehead"	"Neg"	211	716	1	0	3	"Incon"
2	138	"C:\Hannah's FYP\White4_neu.jpg"	"success"	"White"	"forehead"	"Pos"	212	488	2	0	3	"Con"
2	139	"C:\Hannah's FYP\White8_neu.jpg"	"beauty"	"White"	"forehead"	"Pos"	212	853	2	0	3	"Con"
2	140	"C:\Hannah's FYP\Black24_neu.jpg"	"paradise"	"Black"	"nose"	"Pos"	132	848	2	0	3	"Incon"
2	141	"C:\Hannah's FYP\Black8_neu.jpg"	"poison"	"Black"	"forehead"	"Neg"	111	1508	1	0	3	"Con"
2	142	"C:\Hannah's FYP\White24_neu.jpg"	"vomit"	"White"	"nose"	"Neg"	231	766	1	0	3	"Incon"
2	143	"C:\Hannah's FYP\White11_neu.jpg"	"success"	"White"	"eyes"	"Pos"	222	504	2	0	3	"Con"
2	144	"C:\Hannah's FYP\White9_neu.jpg"	"sewage"	"White"	"eyes"	"Neg"	221	605	1	0	3	"Incon"
2	145	"C:\Hannah's FYP\White18_neu.jpg"	"love"	"White"	"nose"	"Pos"	232	738	2	0	3	"Con"
2	146	"C:\Hannah's FYP\White13_neu.jpg"	"vacation"	"White"	"eyes"	"Pos"	222	636	2	0	3	"Con"
2	147	"C:\Hannah's FYP\White24_neu.jpg"	"garbage"	"White"	"nose"	"Neg"	231	587	1	0	3	"Incon"
2	148	"C:\Hannah's FYP\Black16_neu.jpg"	"sewage"	"Black"	"eyes"	"Neg"	121	604	1	0	3	"Con"
2	149	"C:\Hannah's FYP\Black22_neu.jpg"	"disgust"	"Black"	"nose"	"Neg"	131	986	1	0	3	"Con"
2	150	"C:\Hannah's FYP\White20_neu.jpg"	"paradise"	"White"	"nose"	"Pos"	232	526	2	0	3	"Con"
2	151	"C:\Hannah's FYP\Black12_neu.jpg"	"poison"	"Black"	"eyes"	"Neg"	121	602	1	0	3	"Con"
2	152	"C:\Hannah's FYP\White21_neu.jpg"	"cockroach"	"White"	"nose"	"Neg"	231	575	2	1	3	"Incon"
2	153	"C:\Hannah's FYP\Black10_neu.jpg"	"paradise"	"Black"	"eyes"	"Pos"	122	1908.2227783838	2	0	3	"Incon"
2	154	"C:\Hannah's FYP\Black21_neu.jpg"	"garbage"	"Black"	"nose"	"Neg"	131	500	1	0	3	"Con"
2	155	"C:\Hannah's FYP\White6_neu.jpg"	"vomit"	"White"	"forehead"	"Neg"	211	520	1	0	3	"Incon"
2	156	"C:\Hannah's FYP\Black3_neu.jpg"	"garbage"	"Black"	"forehead"	"Neg"	111	947	1	0	3	"Con"
2	157	"C:\Hannah's FYP\White8_neu.jpg"	"success"	"White"	"forehead"	"Pos"	212	573	2	0	3	"Con"
2	158	"C:\Hannah's FYP\White13_neu.jpg"	"garbage"	"White"	"eyes"	"Neg"	221	831	1	0	3	"Incon"
2	159	"C:\Hannah's FYP\White10_neu.jpg"	"despair"	"White"	"eyes"	"Neg"	221	598	1	0	3	"Incon"
2	160	"C:\Hannah's FYP\Black18_neu.jpg"	"cockroach"	"Black"	"nose"	"Neg"	131	1127	1	0	3	"Con"
2	161	"C:\Hannah's FYP\Black10_neu.jpg"	"vomit"	"Black"	"eyes"	"Neg"	121	721	1	0	3	"Con"
2	162	"C:\Hannah's FYP\White20_neu.jpg"	"vacation"	"White"	"nose"	"Pos"	232	1769	2	0	3	"Con"
2	163	"C:\Hannah's FYP\White17_neu.jpg"	"success"	"White"	"nose"	"Pos"	232	463	2	0	3	"Con"
2	164	"C:\Hannah's FYP\Black13_neu.jpg"	"pest"	"Black"	"eyes"	"Neg"	121	670	1	0	3	"Con"
2	165	"C:\Hannah's FYP\Black14_neu.jpg"	"smile"	"Black"	"eyes"	"Pos"	122	812	2	0	3	"Incon"
2	166	"C:\Hannah's FYP\Black7_neu.jpg"	"garbage"	"Black"	"forehead"	"Neg"	111	681	1	0	3	"Con"
2	167	"C:\Hannah's FYP\White11_neu.jpg"	"poison"	"White"	"eyes"	"Neg"	221	838	1	0	3	"Incon"
2	168	"C:\Hannah's FYP\Black19_neu.jpg"	"despair"	"Black"	"nose"	"Neg"	131	772	1	0	3	"Con"
2	169	"C:\Hannah's FYP\White7_neu.jpg"	"garbage"	"White"	"forehead"	"Neg"	211	541	1	0	3	"Incon"
2	170	"C:\Hannah's FYP\Black5_neu.jpg"	"romance"	"Black"	"forehead"	"Pos"	112	680	2	0	3	"Incon"
2	171	"C:\Hannah's FYP\White21_neu.jpg"	"love"	"White"	"nose"	"Pos"	232	674	2	0	3	"Con"
2	172	"C:\Hannah's FYP\Black3_neu.jpg"	"love"	"Black"	"forehead"	"Pos"	112	510	2	0	3	"Incon"
2	173	"C:\Hannah's FYP\White1_neu.jpg"	"vomit"	"White"	"forehead"	"Neg"	211	595	1	0	3	"Incon"
2	174	"C:\Hannah's FYP\Black24_neu.jpg"	"romance"	"Black"	"nose"	"Pos"	132	513	2	0	3	"Incon"
2	175	"C:\Hannah's FYP\White21_neu.jpg"	"sewage"	"White"	"nose"	"Neg"	231	538	1	0	3	"Incon"
2	176	"C:\Hannah's FYP\White11_neu.jpg"	"beauty"	"White"	"eyes"	"Pos"	222	446	2	0	3	"Con"
2	177	"C:\Hannah's FYP\White9_neu.jpg"	"joy"	"White"	"eyes"	"Pos"	222	557	2	0	3	"Con"
2	178	"C:\Hannah's FYP\White15_neu.jpg"	"cockroach"	"White"	"eyes"	"Neg"	221	632	1	0	3	"Incon"
2	179	"C:\Hannah's FYP\White9_neu.jpg"	"romance"	"White"	"eyes"	"Pos"	222	559	2	0	3	"Con"
2	180	"C:\Hannah's FYP\Black1_neu.jpg"	"joy"	"Black"	"forehead"	"Pos"	112	722	2	0	3	"Incon"
2	181	"C:\Hannah's FYP\Black22_neu.jpg"	"joy"	"Black"	"nose"	"Pos"	132	554	2	0	3	"Incon"
2	182	"C:\Hannah's FYP\Black1_neu.jpg"	"despair"	"Black"	"forehead"	"Neg"	111	677	1	0	3	"Con"
2	183	"C:\Hannah's FYP\White1_neu.jpg"	"romance"	"White"	"forehead"	"Pos"	212	698	2	0	3	"Con"
2	184	"C:\Hannah's FYP\Black13_neu.jpg"	"success"	"Black"	"eyes"	"Pos"	122	615	2	0	3	"Incon"
2	185	"C:\Hannah's FYP\Black22_neu.jpg"	"poison"	"Black"	"nose"	"Neg"	131	893	1	0	3	"Con"
2	186	"C:\Hannah's FYP\Black14_neu.jpg"	"garbage"	"Black"	"eyes"	"Neg"	121	649	1	0	3	"Con"
2	187	"C:\Hannah's FYP\White14_neu.jpg"	"poison"	"White"	"eyes"	"Neg"	221	668	1	0	3	"Incon"
2	188	"C:\Hannah's FYP\Black23_neu.jpg"	"smile"	"Black"	"nose"	"Pos"	132	839	2	0	3	"Incon"
2	189	"C:\Hannah's FYP\Black5_neu.jpg"	"pest"	"Black"	"forehead"	"Neg"	111	573	1	0	3	"Con"
2	190	"C:\Hannah's FYP\Black18_neu.jpg"	"smile"	"Black"	"nose"	"Pos"	132	519	2	0	3	"Incon"
2	191	"C:\Hannah's FYP\Black13_neu.jpg"	"vacation"	"Black"	"eyes"	"Pos"	122	643	2	0	3	"Incon"
2	192	"C:\Hannah's FYP\White19_neu.jpg"	"garbage"	"White"	"nose"	"Neg"	231	792	1	0	3	"Incon"
2	1	"C:\Hannah's FYP\White21_neu.jpg"	"beauty"	"White"	"nose"	"Pos"	232	1944.57544831985	2	0	4	"Con"
2	2	"C:\Hannah's FYP\White18_neu.jpg"	"vacation"	"White"	"nose"	"Pos"	232	735	2	0	4	"Con"
2	3	"C:\Hannah's FYP\Black21_neu.jpg"	"pest"	"Black"	"nose"	"Neg"	131	1158	1	0	4	"Con"
2	4	"C:\Hannah's FYP\Black10_neu.jpg"	"romance"	"Black"	"eyes"	"Pos"	122	831	2	0	4	"Incon"
2	5	"C:\Hannah's FYP\Black6_neu.jpg"	"romance"	"Black"	"forehead"	"Pos"	112	758	2	0	4	"Incon"
2	6	"C:\Hannah's FYP\White22_neu.jpg"	"pest"	"White"	"nose"	"Neg"	231	847	1	0	4	"Incon"
2	7	"C:\Hannah's FYP\White16_neu.jpg"	"sewage"	"White"	"eyes"	"Neg"	221	924	1	0	4	"Incon"
2	8	"C:\Hannah's FYP\White3_neu.jpg"	"pest"	"White"	"forehead"	"Neg"	211	535	1	0	4	"Incon"
2	9	"C:\Hannah's FYP\White22_neu.jpg"	"joy"	"White"	"nose"	"Pos"	232	538	2	0	4	"Con"
2	10	"C:\Hannah's FYP\White2_neu.jpg"	"disgust"	"White"	"forehead"	"Neg"	211	869	1	0	4	"Incon"
2	11	"C:\Hannah's FYP\Black4_neu.jpg"	"disgust"	"Black"	"forehead"	"Neg"	111	1042	1	0	4	"Con"
2	12	"C:\Hannah's FYP\Black2_neu.jpg"	"beauty"	"Black"	"forehead"	"Pos"	112	664	2	0	4	"Incon"
2	13	"C:\Hannah's FYP\Black12_neu.jpg"	"smile"	"Black"	"eyes"	"Pos"	122	566	2	0	4	"Incon"
2	14	"C:\Hannah's FYP\Black10_neu.jpg"	"vacation"	"Black"	"eyes"	"Pos"	122	553	2	0	4	"Incon"
2	15	"C:\Hannah's FYP\White15_neu.jpg"	"pest"	"White"	"eyes"	"Neg"	221	595	1	0	4	"Incon"
2	16	"C:\Hannah's FYP\Black5_neu.jpg"	"love"	"Black"	"forehead"	"Pos"	112	588	2	0	4	"Incon"
2	17	"C:\Hannah's FYP\White24_neu.jpg"	"vomit"	"White"	"nose"	"Neg"	231	661	1	0	4	"Incon"
2	18	"C:\Hannah's FYP\Black2_neu.jpg"	"romance"	"Black"	"forehead"	"Pos"	112	491	2	0	4	"Incon"
2	19	"C:\Hannah's FYP\Black15_neu.jpg"	"poison"	"Black"	"eyes"	"Neg"	121	641	1	0	4	"Con"
2	20	"C:\Hannah's FYP\Black20_neu.jpg"	"pest"	"Black"	"nose"	"Neg"	131	827	1	0	4	"Con"
2	21	"C:\Hannah's FYP\Black12_neu.jpg"	"paradise"	"Black"	"eyes"	"Pos"	122	754	2	0	4	"Incon"
2	22	"C:\Hannah's FYP\Black12_neu.jpg"	"despair"	"Black"	"eyes"	"Neg"	121	748	1	0	4	"Con"
2	23	"C:\Hannah's FYP\White1_neu.jpg"	"paradise"	"White"	"forehead"	"Pos"	212	1944.57544831985	2	0	4	"Con"
2	24	"C:\Hannah's FYP\White19_neu.jpg"	"garbage"	"White"	"nose"	"Neg"	231	653	1	0	4	"Incon"
2	25	"C:\Hannah's FYP\Black21_neu.jpg"	"love"	"Black"	"nose"	"Pos"	132	680	2	0	4	"Incon"
2	26	"C:\Hannah's FYP\Black16_neu.jpg"	"beauty"	"Black"	"eyes"	"Pos"	122	629	2	0	4	"Incon"
2	27	"C:\Hannah's FYP\Black18_neu.jpg"	"despair"	"Black"	"nose"	"Neg"	131	589	1	0	4	"Con"
2	28	"C:\Hannah's FYP\White16_neu.jpg"	"joy"	"White"	"eyes"	"Pos"	222	742	2	0	4	"Con"
2	29	"C:\Hannah's FYP\White16_neu.jpg"	"success"	"White"	"eyes"	"Pos"	222	496	2	0	4	"Con"
2	30	"C:\Hannah's FYP\White24_neu.jpg"	"cockroach"	"White"	"nose"	"Neg"	231	718	1	0	4	"Incon"
2	31	"C:\Hannah's FYP\White5_neu.jpg"	"success"	"White"	"forehead"	"Pos"	212	817	2	0	4	"Con"
2	32	"C:\Hannah's FYP\White9_neu.jpg"	"success"	"White"	"eyes"	"Pos"	222	745	2	0	4	"Con"
2	33	"C:\Hannah's FYP\Black23_neu.jpg"	"poison"	"Black"	"nose"	"Neg"	131	832	1	0	4	"Con"
2	34	"C:\Hannah's FYP\White18_neu.jpg"	"sewage"	"White"	"nose"	"Neg"	231	1163	1	0	4	"Incon"
2	35	"C:\Hannah's FYP\White18_neu.jpg"	"joy"	"White"	"nose"	"Pos"	232	1112	2	0	4	"Con"
2	36	"C:\Hannah's FYP\Black20_neu.jpg"	"smile"	"Black"	"nose"	"Pos"	132	879	2	0	4	"Incon"
2	37	"C:\Hannah's FYP\Black17_neu.jpg"	"joy"	"Black"	"nose"	"Pos"	132	721	2	0	4	"Incon"
2	38	"C:\Hannah's FYP\Black21_neu.jpg"	"success"	"Black"	"nose"	"Pos"	132	1034	2	0	4	"Incon"
2	39	"C:\Hannah's FYP\White1_neu.jpg"	"despair"	"White"	"forehead"	"Neg"	211	600	1	0	4	"Incon"
2	40	"C:\Hannah's FYP\White12_neu.jpg"	"beauty"	"White"	"eyes"	"Pos"	222	953	2	0	4	"Con"
2	41	"C:\Hannah's FYP\Black14_neu.jpg"	"success"	"Black"	"eyes"	"Pos"	122	746	2	0	4	"Incon"
2	42	"C:\Hannah's FYP\White17_neu.jpg"	"vomit"	"White"	"nose"	"Neg"	231	1020	1	0	4	"Incon"
2	43	"C:\Hannah's FYP\Black4_neu.jpg"	"paradise"	"Black"	"forehead"	"Pos"	112	723	2	0	4	"Incon"
2	44	"C:\Hannah's FYP\Black12_neu.jpg"	"vomit"	"Black"	"eyes"	"Neg"	121	1094	1	0	4	"Con"
2	45	"C:\Hannah's FYP\White2_neu.jpg"	"vacation"	"White"	"forehead"	"Pos"	212	634	2	0	4	"Con"
2	46	"C:\Hannah's FYP\Black24_neu.jpg"	"vomit"	"Black"	"nose"	"Neg"	131	973	1	0	4	"Con"
2	47	"C:\Hannah's FYP\Black9_neu.jpg"	"love"	"Black"	"eyes"	"Pos"	122	798	2	0	4	"Incon"
2	48	"C:\Hannah's FYP\White9_neu.jpg"	"poison"	"White"	"eyes"	"Neg"	221	766	1	0	4	"Incon"
2	49	"C:\Hannah's FYP\White20_neu.jpg"	"smile"	"White"	"nose"	"Pos"	232	692	2	0	4	"Con"
2	50	"C:\Hannah's FYP\Black23_neu.jpg"	"smile"	"Black"	"nose"	"Pos"	132	877	2	0	4	"Incon"
2	51	"C:\Hannah's FYP\Black17_neu.jpg"	"vacation"	"Black"	"nose"	"Pos"	132	776	2	0	4	"Incon"
2	52	"C:\Hannah's FYP\White16_neu.jpg"	"disgust"	"White"	"eyes"	"Neg"	221	713	1	0	4	"Incon"
2	53	"C:\Hannah's FYP\Black17_neu.jpg"	"poison"	"Black"	"nose"	"Neg"	131	811	1	0	4	"Con"
2	54	"C:\Hannah's FYP\Black1_neu.jpg"	"pest"	"Black"	"forehead"	"Neg"	111	995	1	0	4	"Con"
2	55	"C:\Hannah's FYP\White5_neu.jpg"	"paradise"	"White"	"forehead"	"Pos"	212	723	2	0	4	"Con"
2	56	"C:\Hannah's FYP\Black2_neu.jpg"	"sewage"	"Black"	"forehead"	"Neg"	111	902	1	0	4	"Con"
2	57	"C:\Hannah's FYP\White13_neu.jpg"	"poison"	"White"	"eyes"	"Neg"	221	969	1	0	4	"Incon"
2	58	"C:\Hannah's FYP\Black21_neu.jpg"	"cockroach"	"Black"	"nose"	"Neg"	131	702	1	0	4	"Con"
2	59	"C:\Hannah's FYP\White12_neu.jpg"	"despair"	"White"	"eyes"	"Neg"	221	850	1	0	4	"Incon"
2	60	"C:\Hannah's FYP\Black8_neu.jpg"	"cockroach"	"Black"	"forehead"	"Neg"	111	1007	1	0	4	"Con"
2	61	"C:\Hannah's FYP\Black7_neu.jpg"	"vomit"	"Black"	"forehead"	"Neg"	111	859	1	0	4	"Con"
2	62	"C:\Hannah's FYP\Black5_neu.jpg"	"garbage"	"Black"	"forehead"	"Neg"	111	952	1	0	4	"Con"
2	63	"C:\Hannah's FYP\Black16_neu.jpg"	"garbage"	"Black"	"eyes"	"Neg"	121	1010	1	0	4	"Con"
2	64	"C:\Hannah's FYP\Black14_neu.jpg"	"cockroach"	"Black"	"eyes"	"Neg"	121	809	1	0	4	"Con"
2	65	"C:\Hannah's FYP\Black6_neu.jpg"	"despair"	"Black"	"forehead"	"Neg"	111	865	1	0	4	"Con"
2	66	"C:\Hannah's FYP\Black24_neu.jpg"	"paradise"	"Black"	"nose"	"Pos"	132	843	2	0	4	"Incon"
2	67	"C:\Hannah's FYP\White13_neu.jpg"	"cockroach"	"White"	"eyes"	"Neg"	221	778	1	0	4	"Incon"
2	68	"C:\Hannah's FYP\White4_neu.jpg"	"smile"	"White"	"forehead"	"Pos"	212	619	2	0	4	"Con"
2	69	"C:\Hannah's FYP\White11_neu.jpg"	"paradise"	"White"	"eyes"	"Pos"	222	554	2	0	4	"Con"
2	70	"C:\Hannah's FYP\White13_neu.jpg"	"paradise"	"White"	"eyes"	"Pos"	222	709	2	0	4	"Con"
2	71	"C:\Hannah's FYP\Black22_neu.jpg"	"vacation"	"Black"	"nose"	"Pos"	132	830	2	0	4	"Incon"
2	72	"C:\Hannah's FYP\Black9_neu.jpg"	"poison"	"Black"	"eyes"	"Neg"	121	885	1	0	4	"Con"
2	73	"C:\Hannah's FYP\Black17_neu.jpg"	"disgust"	"Black"	"nose"	"Neg"	131	823	1	0	4	"Con"
2	74	"C:\Hannah's FYP\Black7_neu.jpg"	"joy"	"Black"	"forehead"	"Pos"	112	716	2	0	4	"Incon"
2	75	"C:\Hannah's FYP\Black2_neu.jpg"	"vomit"	"Black"	"forehead"	"Neg"	111	608	1	0	4	"Con"
2	76	"C:\Hannah's FYP\Black1_neu.jpg"	"vacation"	"Black"	"forehead"	"Pos"	112	720	2	0	4	"Incon"
2	77	"C:\Hannah's FYP\White11_neu.jpg"	"sewage"	"White"	"eyes"	"Neg"	221	619	1	0	4	"Incon"
2	78	"C:\Hannah's FYP\Black23_neu.jpg"	"beauty"	"Black"	"nose"	"Pos"	132	528	2	0	4	"Incon"
2	79	"C:\Hannah's FYP\Black5_neu.jpg"	"sewage"	"Black"	"forehead"	"Neg"	111	716	1	0	4	"Con"
2	80	"C:\Hannah's FYP\White8_neu.jpg"	"beauty"	"White"	"forehead"	"Pos"	212	520	2	0	4	"Con"
2	81	"C:\Hannah's FYP\Black10_neu.jpg"	"disgust"	"Black"	"eyes"	"Neg"	121	844	1	0	4	"Con"
2	82	"C:\Hannah's FYP\Black19_neu.jpg"	"vomit"	"Black"	"nose"	"Neg"	131	1330	1	0	4	"Con"
2	83	"C:\Hannah's FYP\White20_neu.jpg"	"disgust"	"White"	"nose"	"Neg"	231	632	1	0	4	"Incon"
2	84	"C:\Hannah's FYP\White13_neu.jpg"	"vacation"	"White"	"eyes"	"Pos"	222	584	2	0	4	"Con"
2	85	"C:\Hannah's FYP\White5_neu.jpg"	"disgust"	"White"	"forehead"	"Neg"	211	1185	1	0	4	"Incon"
2	86	"C:\Hannah's FYP\Black7_neu.jpg"	"disgust"	"Black"	"forehead"	"Neg"	111	590	1	0	4	"Con"
2	87	"C:\Hannah's FYP\White5_neu.jpg"	"pest"	"White"	"forehead"	"Neg"	211	687	1	0	4	"Incon"
2	88	"C:\Hannah's FYP\Black24_neu.jpg"	"despair"	"Black"	"nose"	"Neg"	131	1001	1	0	4	"Con"
2	89	"C:\Hannah's FYP\White19_neu.jpg"	"romance"	"White"	"nose"	"Pos"	232	718	2	0	4	"Con"
2	90	"C:\Hannah's FYP\Black8_neu.jpg"	"success"	"Black"	"forehead"	"Pos"	112	935	2	0	4	"Incon"
2	91	"C:\Hannah's FYP\White6_neu.jpg"	"joy"	"White"	"forehead"	"Pos"	212	825	2	0	4	"Con"
2	92	"C:\Hannah's FYP\White18_neu.jpg"	"poison"	"White"	"nose"	"Neg"	231	1132	1	0	4	"Incon"
2	93	"C:\Hannah's FYP\Black14_neu.jpg"	"disgust"	"Black"	"eyes"	"Neg"	121	918	1	0	4	"Con"
2	94	"C:\Hannah's FYP\White14_neu.jpg"	"beauty"	"White"	"eyes"	"Pos"	222	838	2	0	4	"Con"
2	95	"C:\Hannah's FYP\White8_neu.jpg"	"garbage"	"White"	"forehead"	"Neg"	211	1068	1	0	4	"Incon"
2	96	"C:\Hannah's FYP\White7_neu.jpg"	"vacation"	"White"	"forehead"	"Pos"	212	665	2	0	4	"Con"
2	97	"C:\Hannah's FYP\White12_neu.jpg"	"disgust"	"White"	"eyes"	"Neg"	221	1431	1	0	4	"Incon"
2	98	"C:\Hannah's FYP\White8_neu.jpg"	"despair"	"White"	"forehead"	"Neg"	211	764	1	0	4	"Incon"
2	99	"C:\Hannah's FYP\White19_neu.jpg"	"cockroach"	"White"	"nose"	"Neg"	231	739	1	0	4	"Incon"
2	100	"C:\Hannah's FYP\Black3_neu.jpg"	"joy"	"Black"	"forehead"	"Pos"	112	612	2	0	4	"Incon"
2	101	"C:\Hannah's FYP\Black1_neu.jpg"	"love"	"Black"	"forehead"	"Pos"	112	677	2	0	4	"Incon"
2	102	"C:\Hannah's FYP\White7_neu.jpg"	"sewage"	"White"	"forehead"	"Neg"	211	682	1	0	4	"Incon"
2	103	"C:\Hannah's FYP\White15_neu.jpg"	"smile"	"White"	"eyes"	"Pos"	222	528	2	0	4	"Con"
2	104	"C:\Hannah's FYP\White17_neu.jpg"	"love"	"White"	"nose"	"Pos"	232	580	2	0	4	"Con"
2	105	"C:\Hannah's FYP\Black3_neu.jpg"	"poison"	"Black"	"forehead"	"Neg"	111	852	1	0	4	"Con"
2	106	"C:\Hannah's FYP\White14_neu.jpg"	"love"	"White"	"eyes"	"Pos"	222	622	2	0	4	"Con"
2	107	"C:\Hannah's FYP\White21_neu.jpg"	"sewage"	"White"	"nose"	"Neg"	231	651	1	0	4	"Incon"
2	108	"C:\Hannah's FYP\Black3_neu.jpg"	"smile"	"Black"	"forehead"	"Pos"	112	639	2	0	4	"Incon"
2	109	"C:\Hannah's FYP\White4_neu.jpg"	"garbage"	"White"	"forehead"	"Neg"	211	622	1	0	4	"Incon"
2	110	"C:\Hannah's FYP\White6_neu.jpg"	"cockroach"	"White"	"forehead"	"Neg"	211	830	1	0	4	"Incon"
2	111	"C:\Hannah's FYP\Black13_neu.jpg"	"vomit"	"Black"	"eyes"	"Neg"	121	749	1	0	4	"Con"
2	112	"C:\Hannah's FYP\Black11_neu.jpg"	"success"	"Black"	"eyes"	"Pos"	122	711	2	0	4	"Incon"
2	113	"C:\Hannah's FYP\Black16_neu.jpg"	"love"	"Black"	"eyes"	"Pos"	122	643	2	0	4	"Incon"
2	114	"C:\Hannah's FYP\Black24_neu.jpg"	"romance"	"Black"	"nose"	"Pos"	132	607	2	0	4	"Incon"
2	115	"C:\Hannah's FYP\White17_neu.jpg"	"paradise"	"White"	"nose"	"Pos"	232	544	2	0	4	"Con"
2	116	"C:\Hannah's FYP\White20_neu.jpg"	"beauty"	"White"	"nose"	"Pos"	232	463	2	0	4	"Con"
2	117	"C:\Hannah's FYP\Black15_neu.jpg"	"joy"	"Black"	"eyes"	"Pos"	122	414	2	0	4	"Incon"
2	118	"C:\Hannah's FYP\Black11_neu.jpg"	"beauty"	"Black"	"eyes"	"Pos"	122	703	2	0	4	"Incon"
2	119	"C:\Hannah's FYP\White9_neu.jpg"	"romance"	"White"	"eyes"	"Pos"	222	603	2	0	4	"Con"
2	120	"C:\Hannah's FYP\Black9_neu.jpg"	"sewage"	"Black"	"eyes"	"Neg"	121	859	1	0	4	"Con"
2	121	"C:\Hannah's FYP\White7_neu.jpg"	"romance"	"White"	"forehead"	"Pos"	212	489	2	0	4	"Con"
2	122	"C:\Hannah's FYP\Black20_neu.jpg"	"romance"	"Black"	"nose"	"Pos"	132	650	2	0	4	"Incon"
2	123	"C:\Hannah's FYP\White10_neu.jpg"	"joy"	"White"	"eyes"	"Pos"	222	585	2	0	4	"Con"
2	124	"C:\Hannah's FYP\Black9_neu.jpg"	"joy"	"Black"	"eyes"	"Pos"	122	658	2	0	4	"Incon"
2	125	"C:\Hannah's FYP\White6_neu.jpg"	"love"	"White"	"forehead"	"Pos"	212	680	2	0	4	"Con"
2	126	"C:\Hannah's FYP\Black13_neu.jpg"	"sewage"	"Black"	"eyes"	"Neg"	121	614	1	0	4	"Con"
2	127	"C:\Hannah's FYP\White3_neu.jpg"	"success"	"White"	"forehead"	"Pos"	212	710	2	0	4	"Con"
2	128	"C:\Hannah's FYP\White14_neu.jpg"	"despair"	"White"	"eyes"	"Neg"	221	710	1	0	4	"Incon"
2	129	"C:\Hannah's FYP\Black13_neu.jpg"	"smile"	"Black"	"eyes"	"Pos"	122	650	2	0	4	"Incon"
2	130	"C:\Hannah's FYP\Black19_neu.jpg"	"beauty"	"Black"	"nose"	"Pos"	132	641	2	0	4	"Incon"
2	131	"C:\Hannah's FYP\Black22_neu.jpg"	"joy"	"Black"	"nose"	"Pos"	132	517	2	0	4	"Incon"
2	132	"C:\Hannah's FYP\Black18_neu.jpg"	"paradise"	"Black"	"nose"	"Pos"	132	601	2	0	4	"Incon"
2	133	"C:\Hannah's FYP\White15_neu.jpg"	"romance"	"White"	"eyes"	"Pos"	222	521	2	0	4	"Con"
2	134	"C:\Hannah's FYP\White17_neu.jpg"	"despair"	"White"	"nose"	"Neg"	231	717	1	0	4	"Incon"
2	135	"C:\Hannah's FYP\Black23_neu.jpg"	"garbage"	"Black"	"nose"	"Neg"	131	694	1	0	4	"Con"
2	136	"C:\Hannah's FYP\White14_neu.jpg"	"garbage"	"White"	"eyes"	"Neg"	221	1079	1	0	4	"Incon"
2	137	"C:\Hannah's FYP\Black6_neu.jpg"	"paradise"	"Black"	"forehead"	"Pos"	112	771	2	0	4	"Incon"
2	138	"C:\Hannah's FYP\Black5_neu.jpg"	"vacation"	"Black"	"forehead"	"Pos"	112	900	2	0	4	"Incon"
2	139	"C:\Hannah's FYP\Black10_neu.jpg"	"pest"	"Black"	"eyes"	"Neg"	121	849	1	0	4	"Con"
2	140	"C:\Hannah's FYP\White11_neu.jpg"	"smile"	"White"	"eyes"	"Pos"	222	631	2	0	4	"Con"
2	141	"C:\Hannah's FYP\White10_neu.jpg"	"garbage"	"White"	"eyes"	"Neg"	221	654	1	0	4	"Incon"
2	142	"C:\Hannah's FYP\Black16_neu.jpg"	"pest"	"Black"	"eyes"	"Neg"	121	773	1	0	4	"Con"
2	143	"C:\Hannah's FYP\White3_neu.jpg"	"beauty"	"White"	"forehead"	"Pos"	212	878	2	0	4	"Con"
2	144	"C:\Hannah's FYP\Black8_neu.jpg"	"beauty"	"Black"	"forehead"	"Pos"	112	585	2	0	4	"Incon"
2	145	"C:\Hannah's FYP\Black14_neu.jpg"	"romance"	"Black"	"eyes"	"Pos"	122	650	2	0	4	"Incon"
2	146	"C:\Hannah's FYP\White23_neu.jpg"	"garbage"	"White"	"nose"	"Neg"	231	860	1	0	4	"Incon"
2	147	"C:\Hannah's FYP\White22_neu.jpg"	"smile"	"White"	"nose"	"Pos"	232	1944.57544831985	2	0	4	"Con"
2	148	"C:\Hannah's FYP\White24_neu.jpg"	"vacation"	"White"	"nose"	"Pos"	232	818	2	0	4	"Con"
2	149	"C:\Hannah's FYP\White4_neu.jpg"	"poison"	"White"	"forehead"	"Neg"	211	737	1	0	4	"Incon"
2	150	"C:\Hannah's FYP\Black13_neu.jpg"	"vacation"	"Black"	"eyes"	"Pos"	122	756	2	0	4	"Incon"
2	151	"C:\Hannah's FYP\Black18_neu.jpg"	"success"	"Black"	"nose"	"Pos"	132	1806	2	0	4	"Incon"
2	152	"C:\Hannah's FYP\White23_neu.jpg"	"romance"	"White"	"nose"	"Pos"	232	726	2	0	4	"Con"
2	153	"C:\Hannah's FYP\White22_neu.jpg"	"despair"	"White"	"nose"	"Neg"	231	889	1	0	4	"Incon"
2	154	"C:\Hannah's FYP\Black20_neu.jpg"	"garbage"	"Black"	"nose"	"Neg"	131	1289	1	0	4	"Con"
2	155	"C:\Hannah's FYP\Black1_neu.jpg"	"garbage"	"Black"	"forehead"	"Neg"	111	708	1	0	4	"Con"
2	156	"C:\Hannah's FYP\White23_neu.jpg"	"love"	"White"	"nose"	"Pos"	232	828	2	0	4	"Con"
2	157	"C:\Hannah's FYP\White1_neu.jpg"	"vomit"	"White"	"forehead"	"Neg"	211	1099	1	0	4	"Incon"
2	158	"C:\Hannah's FYP\Black15_neu.jpg"	"despair"	"Black"	"eyes"	"Neg"	121	1054	1	0	4	"Con"
2	159	"C:\Hannah's FYP\White3_neu.jpg"	"sewage"	"White"	"forehead"	"Neg"	211	691	1	0	4	"Incon"
2	160	"C:\Hannah's FYP\White19_neu.jpg"	"success"	"White"	"nose"	"Pos"	232	901	2	0	4	"Con"
2	161	"C:\Hannah's FYP\White23_neu.jpg"	"disgust"	"White"	"nose"	"Neg"	231	1260	1	0	4	"Incon"
2	162	"C:\Hannah's FYP\Black4_neu.jpg"	"success"	"Black"	"forehead"	"Pos"	112	761	2	0	4	"Incon"
2	163	"C:\Hannah's FYP\White12_neu.jpg"	"love"	"White"	"eyes"	"Pos"	222	643	2	0	4	"Con"
2	164	"C:\Hannah's FYP\Black6_neu.jpg"	"pest"	"Black"	"forehead"	"Neg"	111	610	1	0	4	"Con"
2	165	"C:\Hannah's FYP\White24_neu.jpg"	"paradise"	"White"	"nose"	"Pos"	232	538	2	0	4	"Con"
2	166	"C:\Hannah's FYP\Black7_neu.jpg"	"smile"	"Black"	"forehead"	"Pos"	112	723	2	0	4	"Incon"
2	167	"C:\Hannah's FYP\Black22_neu.jpg"	"disgust"	"Black"	"nose"	"Neg"	131	1380	1	0	4	"Con"
2	168	"C:\Hannah's FYP\Black18_neu.jpg"	"cockroach"	"Black"	"nose"	"Neg"	131	1944.57544831985	1	0	4	"Con"
2	169	"C:\Hannah's FYP\White15_neu.jpg"	"vomit"	"White"	"eyes"	"Neg"	221	565	1	0	4	"Incon"
2	170	"C:\Hannah's FYP\White9_neu.jpg"	"cockroach"	"White"	"eyes"	"Neg"	221	1007	1	0	4	"Incon"
2	171	"C:\Hannah's FYP\Black19_neu.jpg"	"love"	"Black"	"nose"	"Pos"	132	503	2	0	4	"Incon"
2	172	"C:\Hannah's FYP\White1_neu.jpg"	"love"	"White"	"forehead"	"Pos"	212	523	2	0	4	"Con"
2	173	"C:\Hannah's FYP\White10_neu.jpg"	"vacation"	"White"	"eyes"	"Pos"	222	1503	2	0	4	"Con"
2	174	"C:\Hannah's FYP\Black11_neu.jpg"	"garbage"	"Black"	"eyes"	"Neg"	121	849	1	0	4	"Con"
2	175	"C:\Hannah's FYP\White21_neu.jpg"	"poison"	"White"	"nose"	"Neg"	231	851	1	0	4	"Incon"
2	176	"C:\Hannah's FYP\White7_neu.jpg"	"vomit"	"White"	"forehead"	"Neg"	211	681	1	0	4	"Incon"
2	177	"C:\Hannah's FYP\White8_neu.jpg"	"smile"	"White"	"forehead"	"Pos"	212	710	2	0	4	"Con"
2	178	"C:\Hannah's FYP\White20_neu.jpg"	"pest"	"White"	"nose"	"Neg"	231	927	1	0	4	"Incon"
2	179	"C:\Hannah's FYP\Black3_neu.jpg"	"despair"	"Black"	"forehead"	"Neg"	111	856	1	0	4	"Con"
2	180	"C:\Hannah's FYP\Black22_neu.jpg"	"sewage"	"Black"	"nose"	"Neg"	131	763	1	0	4	"Con"
2	181	"C:\Hannah's FYP\White21_neu.jpg"	"success"	"White"	"nose"	"Pos"	232	721	2	0	4	"Con"
2	182	"C:\Hannah's FYP\White2_neu.jpg"	"joy"	"White"	"forehead"	"Pos"	212	764	2	0	4	"Con"
2	183	"C:\Hannah's FYP\Black11_neu.jpg"	"cockroach"	"Black"	"eyes"	"Neg"	121	974	1	0	4	"Con"
2	184	"C:\Hannah's FYP\White2_neu.jpg"	"cockroach"	"White"	"forehead"	"Neg"	211	1591	1	0	4	"Incon"
2	185	"C:\Hannah's FYP\Black15_neu.jpg"	"paradise"	"Black"	"eyes"	"Pos"	122	813	2	0	4	"Incon"
2	186	"C:\Hannah's FYP\White11_neu.jpg"	"vomit"	"White"	"eyes"	"Neg"	221	1005	1	0	4	"Incon"
2	187	"C:\Hannah's FYP\Black4_neu.jpg"	"cockroach"	"Black"	"forehead"	"Neg"	111	876	1	0	4	"Con"
2	188	"C:\Hannah's FYP\White4_neu.jpg"	"romance"	"White"	"forehead"	"Pos"	212	673	2	0	4	"Con"
2	189	"C:\Hannah's FYP\White10_neu.jpg"	"pest"	"White"	"eyes"	"Neg"	221	750	1	0	4	"Incon"
2	190	"C:\Hannah's FYP\Black8_neu.jpg"	"poison"	"Black"	"forehead"	"Neg"	111	1054	1	0	4	"Con"
2	191	"C:\Hannah's FYP\White6_neu.jpg"	"poison"	"White"	"forehead"	"Neg"	211	867	1	0	4	"Incon"
2	192	"C:\Hannah's FYP\Black19_neu.jpg"	"sewage"	"Black"	"nose"	"Neg"	131	1073	1	0	4	"Con"
2	1	"C:\Hannah's FYP\Black15_neu.jpg"	"despair"	"Black"	"eyes"	"Neg"	121	865.14757193714	1	0	6	"Con"
2	2	"C:\Hannah's FYP\Black21_neu.jpg"	"disgust"	"Black"	"nose"	"Neg"	131	455	1	0	6	"Con"
2	3	"C:\Hannah's FYP\White8_neu.jpg"	"beauty"	"White"	"forehead"	"Pos"	212	550	2	0	6	"Con"
2	4	"C:\Hannah's FYP\White15_neu.jpg"	"joy"	"White"	"eyes"	"Pos"	222	553	2	0	6	"Con"
2	5	"C:\Hannah's FYP\White11_neu.jpg"	"disgust"	"White"	"eyes"	"Neg"	221	571	1	0	6	"Incon"
2	6	"C:\Hannah's FYP\Black18_neu.jpg"	"pest"	"Black"	"nose"	"Neg"	131	581	1	0	6	"Con"
2	7	"C:\Hannah's FYP\Black3_neu.jpg"	"beauty"	"Black"	"forehead"	"Pos"	112	637	2	0	6	"Incon"
2	8	"C:\Hannah's FYP\White16_neu.jpg"	"beauty"	"White"	"eyes"	"Pos"	222	452	2	0	6	"Con"
2	9	"C:\Hannah's FYP\White12_neu.jpg"	"vacation"	"White"	"eyes"	"Pos"	222	579	2	0	6	"Con"
2	10	"C:\Hannah's FYP\White1_neu.jpg"	"paradise"	"White"	"forehead"	"Pos"	212	573	2	0	6	"Con"
2	11	"C:\Hannah's FYP\Black10_neu.jpg"	"vomit"	"Black"	"eyes"	"Neg"	121	519	1	0	6	"Con"
2	12	"C:\Hannah's FYP\White10_neu.jpg"	"paradise"	"White"	"eyes"	"Pos"	222	475	2	0	6	"Con"
2	13	"C:\Hannah's FYP\White9_neu.jpg"	"joy"	"White"	"eyes"	"Pos"	222	489	2	0	6	"Con"
2	14	"C:\Hannah's FYP\White11_neu.jpg"	"poison"	"White"	"eyes"	"Neg"	221	543	1	0	6	"Incon"
2	15	"C:\Hannah's FYP\Black24_neu.jpg"	"poison"	"Black"	"nose"	"Neg"	131	455	1	0	6	"Con"
2	16	"C:\Hannah's FYP\White2_neu.jpg"	"poison"	"White"	"forehead"	"Neg"	211	638	1	0	6	"Incon"
2	17	"C:\Hannah's FYP\Black2_neu.jpg"	"romance"	"Black"	"forehead"	"Pos"	112	573	2	0	6	"Incon"
2	18	"C:\Hannah's FYP\Black17_neu.jpg"	"disgust"	"Black"	"nose"	"Neg"	131	556	1	0	6	"Con"
2	19	"C:\Hannah's FYP\White1_neu.jpg"	"pest"	"White"	"forehead"	"Neg"	211	527	1	0	6	"Incon"
2	20	"C:\Hannah's FYP\Black6_neu.jpg"	"sewage"	"Black"	"forehead"	"Neg"	111	499	1	0	6	"Con"
2	21	"C:\Hannah's FYP\Black2_neu.jpg"	"garbage"	"Black"	"forehead"	"Neg"	111	488	1	0	6	"Con"
2	22	"C:\Hannah's FYP\White5_neu.jpg"	"sewage"	"White"	"forehead"	"Neg"	211	469	1	0	6	"Incon"
2	23	"C:\Hannah's FYP\White18_neu.jpg"	"pest"	"White"	"nose"	"Neg"	231	472	1	0	6	"Incon"
2	24	"C:\Hannah's FYP\White4_neu.jpg"	"love"	"White"	"forehead"	"Pos"	212	486	2	0	6	"Con"
2	25	"C:\Hannah's FYP\Black16_neu.jpg"	"disgust"	"Black"	"eyes"	"Neg"	121	475	1	0	6	"Con"
2	26	"C:\Hannah's FYP\Black19_neu.jpg"	"smile"	"Black"	"nose"	"Pos"	132	473	2	0	6	"Incon"
2	27	"C:\Hannah's FYP\Black20_neu.jpg"	"love"	"Black"	"nose"	"Pos"	132	451	2	0	6	"Incon"
2	28	"C:\Hannah's FYP\Black14_neu.jpg"	"beauty"	"Black"	"eyes"	"Pos"	122	498	2	0	6	"Incon"
2	29	"C:\Hannah's FYP\Black10_neu.jpg"	"success"	"Black"	"eyes"	"Pos"	122	527	2	0	6	"Incon"
2	30	"C:\Hannah's FYP\Black8_neu.jpg"	"pest"	"Black"	"forehead"	"Neg"	111	545	1	0	6	"Con"
2	31	"C:\Hannah's FYP\White20_neu.jpg"	"sewage"	"White"	"nose"	"Neg"	231	472	1	0	6	"Incon"
2	32	"C:\Hannah's FYP\White5_neu.jpg"	"romance"	"White"	"forehead"	"Pos"	212	439	2	0	6	"Con"
2	33	"C:\Hannah's FYP\White4_neu.jpg"	"cockroach"	"White"	"forehead"	"Neg"	211	494	1	0	6	"Incon"
2	34	"C:\Hannah's FYP\White3_neu.jpg"	"despair"	"White"	"forehead"	"Neg"	211	555	1	0	6	"Incon"
2	35	"C:\Hannah's FYP\White7_neu.jpg"	"paradise"	"White"	"forehead"	"Pos"	212	558	2	0	6	"Con"
2	36	"C:\Hannah's FYP\Black14_neu.jpg"	"garbage"	"Black"	"eyes"	"Neg"	121	776	1	0	6	"Con"
2	37	"C:\Hannah's FYP\White13_neu.jpg"	"paradise"	"White"	"eyes"	"Pos"	222	521	2	0	6	"Con"
2	38	"C:\Hannah's FYP\Black10_neu.jpg"	"smile"	"Black"	"eyes"	"Pos"	122	517	2	0	6	"Incon"
2	39	"C:\Hannah's FYP\Black21_neu.jpg"	"joy"	"Black"	"nose"	"Pos"	132	446	2	0	6	"Incon"
2	40	"C:\Hannah's FYP\White20_neu.jpg"	"love"	"White"	"nose"	"Pos"	232	434	2	0	6	"Con"
2	41	"C:\Hannah's FYP\White9_neu.jpg"	"garbage"	"White"	"eyes"	"Neg"	221	561	1	0	6	"Incon"
2	42	"C:\Hannah's FYP\Black3_neu.jpg"	"vacation"	"Black"	"forehead"	"Pos"	112	490	2	0	6	"Incon"
2	43	"C:\Hannah's FYP\White6_neu.jpg"	"disgust"	"White"	"forehead"	"Neg"	211	464	1	0	6	"Incon"
2	44	"C:\Hannah's FYP\Black19_neu.jpg"	"sewage"	"Black"	"nose"	"Neg"	131	462	1	0	6	"Con"
2	45	"C:\Hannah's FYP\Black24_neu.jpg"	"despair"	"Black"	"nose"	"Neg"	131	402	1	0	6	"Con"
2	46	"C:\Hannah's FYP\Black13_neu.jpg"	"romance"	"Black"	"eyes"	"Pos"	122	539	2	0	6	"Incon"
2	47	"C:\Hannah's FYP\Black18_neu.jpg"	"vacation"	"Black"	"nose"	"Pos"	132	470	2	0	6	"Incon"
2	48	"C:\Hannah's FYP\Black6_neu.jpg"	"despair"	"Black"	"forehead"	"Neg"	111	540	1	0	6	"Con"
2	49	"C:\Hannah's FYP\Black11_neu.jpg"	"disgust"	"Black"	"eyes"	"Neg"	121	496	1	0	6	"Con"
2	50	"C:\Hannah's FYP\White24_neu.jpg"	"pest"	"White"	"nose"	"Neg"	231	461	1	0	6	"Incon"
2	51	"C:\Hannah's FYP\White10_neu.jpg"	"despair"	"White"	"eyes"	"Neg"	221	476	1	0	6	"Incon"
2	52	"C:\Hannah's FYP\Black8_neu.jpg"	"garbage"	"Black"	"forehead"	"Neg"	111	512	1	0	6	"Con"
2	53	"C:\Hannah's FYP\White17_neu.jpg"	"disgust"	"White"	"nose"	"Neg"	231	468	1	0	6	"Incon"
2	54	"C:\Hannah's FYP\White2_neu.jpg"	"disgust"	"White"	"forehead"	"Neg"	211	490	1	0	6	"Incon"
2	55	"C:\Hannah's FYP\White13_neu.jpg"	"poison"	"White"	"eyes"	"Neg"	221	464	1	0	6	"Incon"
2	56	"C:\Hannah's FYP\Black5_neu.jpg"	"vacation"	"Black"	"forehead"	"Pos"	112	446	2	0	6	"Incon"
2	57	"C:\Hannah's FYP\White15_neu.jpg"	"cockroach"	"White"	"eyes"	"Neg"	221	470	1	0	6	"Incon"
2	58	"C:\Hannah's FYP\White19_neu.jpg"	"cockroach"	"White"	"nose"	"Neg"	231	473	1	0	6	"Incon"
2	59	"C:\Hannah's FYP\Black17_neu.jpg"	"romance"	"Black"	"nose"	"Pos"	132	542	2	0	6	"Incon"
2	60	"C:\Hannah's FYP\White23_neu.jpg"	"sewage"	"White"	"nose"	"Neg"	231	517	1	0	6	"Incon"
2	61	"C:\Hannah's FYP\Black13_neu.jpg"	"pest"	"Black"	"eyes"	"Neg"	121	425	1	0	6	"Con"
2	62	"C:\Hannah's FYP\Black6_neu.jpg"	"paradise"	"Black"	"forehead"	"Pos"	112	449	1	1	6	"Incon"
2	63	"C:\Hannah's FYP\Black1_neu.jpg"	"vomit"	"Black"	"forehead"	"Neg"	111	664	1	0	6	"Con"
2	64	"C:\Hannah's FYP\White18_neu.jpg"	"smile"	"White"	"nose"	"Pos"	232	699	2	0	6	"Con"
2	65	"C:\Hannah's FYP\Black22_neu.jpg"	"vacation"	"Black"	"nose"	"Pos"	132	509	2	0	6	"Incon"
2	66	"C:\Hannah's FYP\Black20_neu.jpg"	"cockroach"	"Black"	"nose"	"Neg"	131	541	1	0	6	"Con"
2	67	"C:\Hannah's FYP\White5_neu.jpg"	"joy"	"White"	"forehead"	"Pos"	212	472	2	0	6	"Con"
2	68	"C:\Hannah's FYP\Black18_neu.jpg"	"joy"	"Black"	"nose"	"Pos"	132	510	2	0	6	"Incon"
2	69	"C:\Hannah's FYP\Black3_neu.jpg"	"disgust"	"Black"	"forehead"	"Neg"	111	490	1	0	6	"Con"
2	70	"C:\Hannah's FYP\White23_neu.jpg"	"success"	"White"	"nose"	"Pos"	232	507	2	0	6	"Con"
2	71	"C:\Hannah's FYP\Black7_neu.jpg"	"romance"	"Black"	"forehead"	"Pos"	112	865.14757193714	2	0	6	"Incon"
2	72	"C:\Hannah's FYP\Black15_neu.jpg"	"love"	"Black"	"eyes"	"Pos"	122	433	2	0	6	"Incon"
2	73	"C:\Hannah's FYP\White15_neu.jpg"	"garbage"	"White"	"eyes"	"Neg"	221	577	1	0	6	"Incon"
2	74	"C:\Hannah's FYP\Black15_neu.jpg"	"vomit"	"Black"	"eyes"	"Neg"	121	562	1	0	6	"Con"
2	75	"C:\Hannah's FYP\White11_neu.jpg"	"success"	"White"	"eyes"	"Pos"	222	509	2	0	6	"Con"
2	76	"C:\Hannah's FYP\Black23_neu.jpg"	"vomit"	"Black"	"nose"	"Neg"	131	511	1	0	6	"Con"
2	77	"C:\Hannah's FYP\Black9_neu.jpg"	"love"	"Black"	"eyes"	"Pos"	122	555	2	0	6	"Incon"
2	78	"C:\Hannah's FYP\Black5_neu.jpg"	"beauty"	"Black"	"forehead"	"Pos"	112	526	2	0	6	"Incon"
2	79	"C:\Hannah's FYP\White17_neu.jpg"	"garbage"	"White"	"nose"	"Neg"	231	514	1	0	6	"Incon"
2	80	"C:\Hannah's FYP\Black3_neu.jpg"	"cockroach"	"Black"	"forehead"	"Neg"	111	557	1	0	6	"Con"
2	81	"C:\Hannah's FYP\Black7_neu.jpg"	"smile"	"Black"	"forehead"	"Pos"	112	461	2	0	6	"Incon"
2	82	"C:\Hannah's FYP\Black14_neu.jpg"	"sewage"	"Black"	"eyes"	"Neg"	121	532	1	0	6	"Con"
2	83	"C:\Hannah's FYP\White12_neu.jpg"	"romance"	"White"	"eyes"	"Pos"	222	544	2	0	6	"Con"
2	84	"C:\Hannah's FYP\White16_neu.jpg"	"romance"	"White"	"eyes"	"Pos"	222	531	2	0	6	"Con"
2	85	"C:\Hannah's FYP\Black10_neu.jpg"	"poison"	"Black"	"eyes"	"Neg"	121	511	1	0	6	"Con"
2	86	"C:\Hannah's FYP\White18_neu.jpg"	"vacation"	"White"	"nose"	"Pos"	232	848	2	0	6	"Con"
2	87	"C:\Hannah's FYP\White24_neu.jpg"	"vomit"	"White"	"nose"	"Neg"	231	510	1	0	6	"Incon"
2	88	"C:\Hannah's FYP\White20_neu.jpg"	"romance"	"White"	"nose"	"Pos"	232	559	2	0	6	"Con"
2	89	"C:\Hannah's FYP\Black9_neu.jpg"	"romance"	"Black"	"eyes"	"Pos"	122	434	2	0	6	"Incon"
2	90	"C:\Hannah's FYP\Black16_neu.jpg"	"cockroach"	"Black"	"eyes"	"Neg"	121	497	1	0	6	"Con"
2	91	"C:\Hannah's FYP\White23_neu.jpg"	"joy"	"White"	"nose"	"Pos"	232	507	2	0	6	"Con"
2	92	"C:\Hannah's FYP\Black21_neu.jpg"	"pest"	"Black"	"nose"	"Neg"	131	621	1	0	6	"Con"
2	93	"C:\Hannah's FYP\Black17_neu.jpg"	"paradise"	"Black"	"nose"	"Pos"	132	522	2	0	6	"Incon"
2	94	"C:\Hannah's FYP\Black6_neu.jpg"	"joy"	"Black"	"forehead"	"Pos"	112	430	2	0	6	"Incon"
2	95	"C:\Hannah's FYP\Black22_neu.jpg"	"garbage"	"Black"	"nose"	"Neg"	131	564	1	0	6	"Con"
2	96	"C:\Hannah's FYP\Black23_neu.jpg"	"success"	"Black"	"nose"	"Pos"	132	460	2	0	6	"Incon"
2	97	"C:\Hannah's FYP\Black16_neu.jpg"	"paradise"	"Black"	"eyes"	"Pos"	122	587	2	0	6	"Incon"
2	98	"C:\Hannah's FYP\Black24_neu.jpg"	"romance"	"Black"	"nose"	"Pos"	132	577	2	0	6	"Incon"
2	99	"C:\Hannah's FYP\Black4_neu.jpg"	"joy"	"Black"	"forehead"	"Pos"	112	459	2	0	6	"Incon"
2	100	"C:\Hannah's FYP\White8_neu.jpg"	"pest"	"White"	"forehead"	"Neg"	211	649	1	0	6	"Incon"
2	101	"C:\Hannah's FYP\Black2_neu.jpg"	"success"	"Black"	"forehead"	"Pos"	112	440	2	0	6	"Incon"
2	102	"C:\Hannah's FYP\White10_neu.jpg"	"beauty"	"White"	"eyes"	"Pos"	222	496	2	0	6	"Con"
2	103	"C:\Hannah's FYP\White14_neu.jpg"	"despair"	"White"	"eyes"	"Neg"	221	490	1	0	6	"Incon"
2	104	"C:\Hannah's FYP\Black7_neu.jpg"	"poison"	"Black"	"forehead"	"Neg"	111	517	1	0	6	"Con"
2	105	"C:\Hannah's FYP\Black24_neu.jpg"	"paradise"	"Black"	"nose"	"Pos"	132	526	2	0	6	"Incon"
2	106	"C:\Hannah's FYP\Black13_neu.jpg"	"joy"	"Black"	"eyes"	"Pos"	122	466	2	0	6	"Incon"
2	107	"C:\Hannah's FYP\Black5_neu.jpg"	"cockroach"	"Black"	"forehead"	"Neg"	111	513	1	0	6	"Con"
2	108	"C:\Hannah's FYP\White4_neu.jpg"	"success"	"White"	"forehead"	"Pos"	212	494	2	0	6	"Con"
2	109	"C:\Hannah's FYP\White7_neu.jpg"	"smile"	"White"	"forehead"	"Pos"	212	523	2	0	6	"Con"
2	110	"C:\Hannah's FYP\Black1_neu.jpg"	"love"	"Black"	"forehead"	"Pos"	112	495	2	0	6	"Incon"
2	111	"C:\Hannah's FYP\Black2_neu.jpg"	"poison"	"Black"	"forehead"	"Neg"	111	492	1	0	6	"Con"
2	112	"C:\Hannah's FYP\White12_neu.jpg"	"cockroach"	"White"	"eyes"	"Neg"	221	865.14757193714	1	0	6	"Incon"
2	113	"C:\Hannah's FYP\Black1_neu.jpg"	"pest"	"Black"	"forehead"	"Neg"	111	532	1	0	6	"Con"
2	114	"C:\Hannah's FYP\White9_neu.jpg"	"sewage"	"White"	"eyes"	"Neg"	221	512	1	0	6	"Incon"
2	115	"C:\Hannah's FYP\Black20_neu.jpg"	"poison"	"Black"	"nose"	"Neg"	131	424	1	0	6	"Con"
2	116	"C:\Hannah's FYP\Black15_neu.jpg"	"success"	"Black"	"eyes"	"Pos"	122	449	2	0	6	"Incon"
2	117	"C:\Hannah's FYP\White15_neu.jpg"	"success"	"White"	"eyes"	"Pos"	222	528	2	0	6	"Con"
2	118	"C:\Hannah's FYP\White14_neu.jpg"	"smile"	"White"	"eyes"	"Pos"	222	496	2	0	6	"Con"
2	119	"C:\Hannah's FYP\White3_neu.jpg"	"romance"	"White"	"forehead"	"Pos"	212	358	2	0	6	"Con"
2	120	"C:\Hannah's FYP\White2_neu.jpg"	"smile"	"White"	"forehead"	"Pos"	212	417	2	0	6	"Con"
2	121	"C:\Hannah's FYP\White13_neu.jpg"	"vacation"	"White"	"eyes"	"Pos"	222	561	2	0	6	"Con"
2	122	"C:\Hannah's FYP\Black11_neu.jpg"	"vacation"	"Black"	"eyes"	"Pos"	122	452	2	0	6	"Incon"
2	123	"C:\Hannah's FYP\White21_neu.jpg"	"poison"	"White"	"nose"	"Neg"	231	487	1	0	6	"Incon"
2	124	"C:\Hannah's FYP\White22_neu.jpg"	"beauty"	"White"	"nose"	"Pos"	232	492	2	0	6	"Con"
2	125	"C:\Hannah's FYP\Black20_neu.jpg"	"beauty"	"Black"	"nose"	"Pos"	132	485	2	0	6	"Incon"
2	126	"C:\Hannah's FYP\Black1_neu.jpg"	"paradise"	"Black"	"forehead"	"Pos"	112	475	2	0	6	"Incon"
2	127	"C:\Hannah's FYP\White21_neu.jpg"	"smile"	"White"	"nose"	"Pos"	232	405	2	0	6	"Con"
2	128	"C:\Hannah's FYP\White21_neu.jpg"	"cockroach"	"White"	"nose"	"Neg"	231	491	1	0	6	"Incon"
2	129	"C:\Hannah's FYP\White22_neu.jpg"	"despair"	"White"	"nose"	"Neg"	231	728	1	0	6	"Incon"
2	130	"C:\Hannah's FYP\White20_neu.jpg"	"vomit"	"White"	"nose"	"Neg"	231	648	1	0	6	"Incon"
2	131	"C:\Hannah's FYP\White14_neu.jpg"	"love"	"White"	"eyes"	"Pos"	222	444	2	0	6	"Con"
2	132	"C:\Hannah's FYP\White17_neu.jpg"	"paradise"	"White"	"nose"	"Pos"	232	524	2	0	6	"Con"
2	133	"C:\Hannah's FYP\Black12_neu.jpg"	"cockroach"	"Black"	"eyes"	"Neg"	121	536	1	0	6	"Con"
2	134	"C:\Hannah's FYP\Black11_neu.jpg"	"despair"	"Black"	"eyes"	"Neg"	121	547	1	0	6	"Con"
2	135	"C:\Hannah's FYP\Black23_neu.jpg"	"sewage"	"Black"	"nose"	"Neg"	131	427	1	0	6	"Con"
2	136	"C:\Hannah's FYP\White24_neu.jpg"	"paradise"	"White"	"nose"	"Pos"	232	587	2	0	6	"Con"
2	137	"C:\Hannah's FYP\White4_neu.jpg"	"vomit"	"White"	"forehead"	"Neg"	211	516	1	0	6	"Incon"
2	138	"C:\Hannah's FYP\Black4_neu.jpg"	"despair"	"Black"	"forehead"	"Neg"	111	481	1	0	6	"Con"
2	139	"C:\Hannah's FYP\Black21_neu.jpg"	"beauty"	"Black"	"nose"	"Pos"	132	587	2	0	6	"Incon"
2	140	"C:\Hannah's FYP\White24_neu.jpg"	"love"	"White"	"nose"	"Pos"	232	404	2	0	6	"Con"
2	141	"C:\Hannah's FYP\Black12_neu.jpg"	"joy"	"Black"	"eyes"	"Pos"	122	389	2	0	6	"Incon"
2	142	"C:\Hannah's FYP\White16_neu.jpg"	"vomit"	"White"	"eyes"	"Neg"	221	551	1	0	6	"Incon"
2	143	"C:\Hannah's FYP\White2_neu.jpg"	"beauty"	"White"	"forehead"	"Pos"	212	442	2	0	6	"Con"
2	144	"C:\Hannah's FYP\White18_neu.jpg"	"poison"	"White"	"nose"	"Neg"	231	493	1	0	6	"Incon"
2	145	"C:\Hannah's FYP\White3_neu.jpg"	"garbage"	"White"	"forehead"	"Neg"	211	451	1	0	6	"Incon"
2	146	"C:\Hannah's FYP\Black12_neu.jpg"	"paradise"	"Black"	"eyes"	"Pos"	122	434	2	0	6	"Incon"
2	147	"C:\Hannah's FYP\Black9_neu.jpg"	"pest"	"Black"	"eyes"	"Neg"	121	593	1	0	6	"Con"
2	148	"C:\Hannah's FYP\Black16_neu.jpg"	"vacation"	"Black"	"eyes"	"Pos"	122	514	2	0	6	"Incon"
2	149	"C:\Hannah's FYP\Black9_neu.jpg"	"garbage"	"Black"	"eyes"	"Neg"	121	559	1	0	6	"Con"
2	150	"C:\Hannah's FYP\White22_neu.jpg"	"vacation"	"White"	"nose"	"Pos"	232	609	2	0	6	"Con"
2	151	"C:\Hannah's FYP\White6_neu.jpg"	"despair"	"White"	"forehead"	"Neg"	211	505	1	0	6	"Incon"
2	152	"C:\Hannah's FYP\Black8_neu.jpg"	"love"	"Black"	"forehead"	"Pos"	112	460	2	0	6	"Incon"
2	153	"C:\Hannah's FYP\White17_neu.jpg"	"success"	"White"	"nose"	"Pos"	232	499	2	0	6	"Con"
2	154	"C:\Hannah's FYP\Black19_neu.jpg"	"success"	"Black"	"nose"	"Pos"	132	432	2	0	6	"Incon"
2	155	"C:\Hannah's FYP\Black19_neu.jpg"	"despair"	"Black"	"nose"	"Neg"	131	464	1	0	6	"Con"
2	156	"C:\Hannah's FYP\White7_neu.jpg"	"cockroach"	"White"	"forehead"	"Neg"	211	543	1	0	6	"Incon"
2	157	"C:\Hannah's FYP\White6_neu.jpg"	"success"	"White"	"forehead"	"Pos"	212	402	2	0	6	"Con"
2	158	"C:\Hannah's FYP\White11_neu.jpg"	"smile"	"White"	"eyes"	"Pos"	222	475	2	0	6	"Con"
2	159	"C:\Hannah's FYP\White1_neu.jpg"	"sewage"	"White"	"forehead"	"Neg"	211	577	1	0	6	"Incon"
2	160	"C:\Hannah's FYP\White1_neu.jpg"	"joy"	"White"	"forehead"	"Pos"	212	435	2	0	6	"Con"
2	161	"C:\Hannah's FYP\White8_neu.jpg"	"love"	"White"	"forehead"	"Pos"	212	555	2	0	6	"Con"
2	162	"C:\Hannah's FYP\White16_neu.jpg"	"pest"	"White"	"eyes"	"Neg"	221	445	1	0	6	"Incon"
2	163	"C:\Hannah's FYP\White23_neu.jpg"	"garbage"	"White"	"nose"	"Neg"	231	449	1	0	6	"Incon"
2	164	"C:\Hannah's FYP\Black12_neu.jpg"	"sewage"	"Black"	"eyes"	"Neg"	121	448	1	0	6	"Con"
2	165	"C:\Hannah's FYP\White8_neu.jpg"	"poison"	"White"	"forehead"	"Neg"	211	528	1	0	6	"Incon"
2	166	"C:\Hannah's FYP\White21_neu.jpg"	"romance"	"White"	"nose"	"Pos"	232	520	2	0	6	"Con"
2	167	"C:\Hannah's FYP\White7_neu.jpg"	"vomit"	"White"	"forehead"	"Neg"	211	492	1	0	6	"Incon"
2	168	"C:\Hannah's FYP\White12_neu.jpg"	"vomit"	"White"	"eyes"	"Neg"	221	433	1	0	6	"Incon"
2	169	"C:\Hannah's FYP\Black8_neu.jpg"	"success"	"Black"	"forehead"	"Pos"	112	303	2	0	6	"Incon"
2	170	"C:\Hannah's FYP\Black18_neu.jpg"	"garbage"	"Black"	"nose"	"Neg"	131	356	1	0	6	"Con"
2	171	"C:\Hannah's FYP\White5_neu.jpg"	"garbage"	"White"	"forehead"	"Neg"	211	391	1	0	6	"Incon"
2	172	"C:\Hannah's FYP\White13_neu.jpg"	"sewage"	"White"	"eyes"	"Neg"	221	329	2	1	6	"Incon"
2	173	"C:\Hannah's FYP\Black23_neu.jpg"	"smile"	"Black"	"nose"	"Pos"	132	450	2	0	6	"Incon"
2	174	"C:\Hannah's FYP\White14_neu.jpg"	"disgust"	"White"	"eyes"	"Neg"	221	430	1	0	6	"Incon"
2	175	"C:\Hannah's FYP\Black4_neu.jpg"	"smile"	"Black"	"forehead"	"Pos"	112	519	2	0	6	"Incon"
2	176	"C:\Hannah's FYP\Black4_neu.jpg"	"sewage"	"Black"	"forehead"	"Neg"	111	506	1	0	6	"Con"
2	177	"C:\Hannah's FYP\Black17_neu.jpg"	"vomit"	"Black"	"nose"	"Neg"	131	445	1	0	6	"Con"
2	178	"C:\Hannah's FYP\Black22_neu.jpg"	"love"	"Black"	"nose"	"Pos"	132	466	2	0	6	"Incon"
2	179	"C:\Hannah's FYP\Black7_neu.jpg"	"vomit"	"Black"	"forehead"	"Neg"	111	446	1	0	6	"Con"
2	180	"C:\Hannah's FYP\Black13_neu.jpg"	"poison"	"Black"	"eyes"	"Neg"	121	438	1	0	6	"Con"
2	181	"C:\Hannah's FYP\Black5_neu.jpg"	"disgust"	"Black"	"forehead"	"Neg"	111	413	1	0	6	"Con"
2	182	"C:\Hannah's FYP\White19_neu.jpg"	"joy"	"White"	"nose"	"Pos"	232	467	2	0	6	"Con"
2	183	"C:\Hannah's FYP\White19_neu.jpg"	"beauty"	"White"	"nose"	"Pos"	232	430	2	0	6	"Con"
2	184	"C:\Hannah's FYP\White19_neu.jpg"	"despair"	"White"	"nose"	"Neg"	231	476	1	0	6	"Incon"
2	185	"C:\Hannah's FYP\White10_neu.jpg"	"pest"	"White"	"eyes"	"Neg"	221	482	1	0	6	"Incon"
2	186	"C:\Hannah's FYP\White22_neu.jpg"	"disgust"	"White"	"nose"	"Neg"	231	456	1	0	6	"Incon"
2	187	"C:\Hannah's FYP\White3_neu.jpg"	"vacation"	"White"	"forehead"	"Pos"	212	471	2	0	6	"Con"
2	188	"C:\Hannah's FYP\Black14_neu.jpg"	"smile"	"Black"	"eyes"	"Pos"	122	477	2	0	6	"Incon"
2	189	"C:\Hannah's FYP\Black22_neu.jpg"	"cockroach"	"Black"	"nose"	"Neg"	131	440	1	0	6	"Con"
2	190	"C:\Hannah's FYP\White9_neu.jpg"	"love"	"White"	"eyes"	"Pos"	222	344	2	0	6	"Con"
2	191	"C:\Hannah's FYP\White6_neu.jpg"	"vacation"	"White"	"forehead"	"Pos"	212	483	2	0	6	"Con"
2	192	"C:\Hannah's FYP\Black11_neu.jpg"	"beauty"	"Black"	"eyes"	"Pos"	122	537	2	0	6	"Incon"
2	1	"C:\Hannah's FYP\Black20_neu.jpg"	"romance"	"Black"	"nose"	"Pos"	132	932	2	0	7	"Incon"
2	2	"C:\Hannah's FYP\White9_neu.jpg"	"vacation"	"White"	"eyes"	"Pos"	222	863	2	0	7	"Con"
2	3	"C:\Hannah's FYP\Black1_neu.jpg"	"cockroach"	"Black"	"forehead"	"Neg"	111	765	1	0	7	"Con"
2	4	"C:\Hannah's FYP\White14_neu.jpg"	"joy"	"White"	"eyes"	"Pos"	222	1155	2	0	7	"Con"
2	5	"C:\Hannah's FYP\White19_neu.jpg"	"disgust"	"White"	"nose"	"Neg"	231	673	1	0	7	"Incon"
2	6	"C:\Hannah's FYP\White22_neu.jpg"	"pest"	"White"	"nose"	"Neg"	231	758	1	0	7	"Incon"
2	7	"C:\Hannah's FYP\White17_neu.jpg"	"joy"	"White"	"nose"	"Pos"	232	688	2	0	7	"Con"
2	8	"C:\Hannah's FYP\Black9_neu.jpg"	"success"	"Black"	"eyes"	"Pos"	122	1301	2	0	7	"Incon"
2	9	"C:\Hannah's FYP\White4_neu.jpg"	"beauty"	"White"	"forehead"	"Pos"	212	648	2	0	7	"Con"
2	10	"C:\Hannah's FYP\White1_neu.jpg"	"love"	"White"	"forehead"	"Pos"	212	767	2	0	7	"Con"
2	11	"C:\Hannah's FYP\White13_neu.jpg"	"vacation"	"White"	"eyes"	"Pos"	222	793	2	0	7	"Con"
2	12	"C:\Hannah's FYP\White22_neu.jpg"	"beauty"	"White"	"nose"	"Pos"	232	1321	2	0	7	"Con"
2	13	"C:\Hannah's FYP\Black17_neu.jpg"	"success"	"Black"	"nose"	"Pos"	132	728	2	0	7	"Incon"
2	14	"C:\Hannah's FYP\White22_neu.jpg"	"vomit"	"White"	"nose"	"Neg"	231	660	1	0	7	"Incon"
2	15	"C:\Hannah's FYP\White4_neu.jpg"	"disgust"	"White"	"forehead"	"Neg"	211	674	1	0	7	"Incon"
2	16	"C:\Hannah's FYP\Black1_neu.jpg"	"love"	"Black"	"forehead"	"Pos"	112	1271	2	0	7	"Incon"
2	17	"C:\Hannah's FYP\White24_neu.jpg"	"cockroach"	"White"	"nose"	"Neg"	231	1355	1	0	7	"Incon"
2	18	"C:\Hannah's FYP\Black21_neu.jpg"	"pest"	"Black"	"nose"	"Neg"	131	847	1	0	7	"Con"
2	19	"C:\Hannah's FYP\White24_neu.jpg"	"garbage"	"White"	"nose"	"Neg"	231	654	1	0	7	"Incon"
2	20	"C:\Hannah's FYP\Black4_neu.jpg"	"pest"	"Black"	"forehead"	"Neg"	111	828	1	0	7	"Con"
2	21	"C:\Hannah's FYP\Black11_neu.jpg"	"beauty"	"Black"	"eyes"	"Pos"	122	579	2	0	7	"Incon"
2	22	"C:\Hannah's FYP\Black15_neu.jpg"	"paradise"	"Black"	"eyes"	"Pos"	122	725	2	0	7	"Incon"
2	23	"C:\Hannah's FYP\White20_neu.jpg"	"paradise"	"White"	"nose"	"Pos"	232	644	2	0	7	"Con"
2	24	"C:\Hannah's FYP\Black18_neu.jpg"	"love"	"Black"	"nose"	"Pos"	132	803	2	0	7	"Incon"
2	25	"C:\Hannah's FYP\White2_neu.jpg"	"vacation"	"White"	"forehead"	"Pos"	212	643	2	0	7	"Con"
2	26	"C:\Hannah's FYP\Black15_neu.jpg"	"sewage"	"Black"	"eyes"	"Neg"	121	562	1	0	7	"Con"
2	27	"C:\Hannah's FYP\Black17_neu.jpg"	"smile"	"Black"	"nose"	"Pos"	132	835	2	0	7	"Incon"
2	28	"C:\Hannah's FYP\Black12_neu.jpg"	"pest"	"Black"	"eyes"	"Neg"	121	673	1	0	7	"Con"
2	29	"C:\Hannah's FYP\White7_neu.jpg"	"beauty"	"White"	"forehead"	"Pos"	212	639	2	0	7	"Con"
2	30	"C:\Hannah's FYP\Black14_neu.jpg"	"romance"	"Black"	"eyes"	"Pos"	122	670	2	0	7	"Incon"
2	31	"C:\Hannah's FYP\Black5_neu.jpg"	"vacation"	"Black"	"forehead"	"Pos"	112	619	2	0	7	"Incon"
2	32	"C:\Hannah's FYP\Black11_neu.jpg"	"romance"	"Black"	"eyes"	"Pos"	122	603	2	0	7	"Incon"
2	33	"C:\Hannah's FYP\Black11_neu.jpg"	"despair"	"Black"	"eyes"	"Neg"	121	1019	1	0	7	"Con"
2	34	"C:\Hannah's FYP\White12_neu.jpg"	"pest"	"White"	"eyes"	"Neg"	221	617	1	0	7	"Incon"
2	35	"C:\Hannah's FYP\Black13_neu.jpg"	"love"	"Black"	"eyes"	"Pos"	122	993	2	0	7	"Incon"
2	36	"C:\Hannah's FYP\Black17_neu.jpg"	"garbage"	"Black"	"nose"	"Neg"	131	663	1	0	7	"Con"
2	37	"C:\Hannah's FYP\Black18_neu.jpg"	"poison"	"Black"	"nose"	"Neg"	131	637	1	0	7	"Con"
2	38	"C:\Hannah's FYP\Black24_neu.jpg"	"love"	"Black"	"nose"	"Pos"	132	673	2	0	7	"Incon"
2	39	"C:\Hannah's FYP\White5_neu.jpg"	"poison"	"White"	"forehead"	"Neg"	211	734	1	0	7	"Incon"
2	40	"C:\Hannah's FYP\Black9_neu.jpg"	"garbage"	"Black"	"eyes"	"Neg"	121	921	1	0	7	"Con"
2	41	"C:\Hannah's FYP\White18_neu.jpg"	"sewage"	"White"	"nose"	"Neg"	231	600	1	0	7	"Incon"
2	42	"C:\Hannah's FYP\White24_neu.jpg"	"joy"	"White"	"nose"	"Pos"	232	825	2	0	7	"Con"
2	43	"C:\Hannah's FYP\White2_neu.jpg"	"cockroach"	"White"	"forehead"	"Neg"	211	640	1	0	7	"Incon"
2	44	"C:\Hannah's FYP\Black7_neu.jpg"	"sewage"	"Black"	"forehead"	"Neg"	111	597	1	0	7	"Con"
2	45	"C:\Hannah's FYP\Black5_neu.jpg"	"paradise"	"Black"	"forehead"	"Pos"	112	1038	2	0	7	"Incon"
2	46	"C:\Hannah's FYP\Black16_neu.jpg"	"vomit"	"Black"	"eyes"	"Neg"	121	676	1	0	7	"Con"
2	47	"C:\Hannah's FYP\Black2_neu.jpg"	"disgust"	"Black"	"forehead"	"Neg"	111	593	1	0	7	"Con"
2	48	"C:\Hannah's FYP\White1_neu.jpg"	"garbage"	"White"	"forehead"	"Neg"	211	586	1	0	7	"Incon"
2	49	"C:\Hannah's FYP\Black20_neu.jpg"	"sewage"	"Black"	"nose"	"Neg"	131	575	1	0	7	"Con"
2	50	"C:\Hannah's FYP\White15_neu.jpg"	"pest"	"White"	"eyes"	"Neg"	221	569	1	0	7	"Incon"
2	51	"C:\Hannah's FYP\White8_neu.jpg"	"disgust"	"White"	"forehead"	"Neg"	211	570	1	0	7	"Incon"
2	52	"C:\Hannah's FYP\White21_neu.jpg"	"vacation"	"White"	"nose"	"Pos"	232	680	2	0	7	"Con"
2	53	"C:\Hannah's FYP\White17_neu.jpg"	"despair"	"White"	"nose"	"Neg"	231	950	1	0	7	"Incon"
2	54	"C:\Hannah's FYP\White7_neu.jpg"	"joy"	"White"	"forehead"	"Pos"	212	592	2	0	7	"Con"
2	55	"C:\Hannah's FYP\White6_neu.jpg"	"cockroach"	"White"	"forehead"	"Neg"	211	641	1	0	7	"Incon"
2	56	"C:\Hannah's FYP\Black3_neu.jpg"	"poison"	"Black"	"forehead"	"Neg"	111	766	1	0	7	"Con"
2	57	"C:\Hannah's FYP\Black9_neu.jpg"	"poison"	"Black"	"eyes"	"Neg"	121	752	1	0	7	"Con"
2	58	"C:\Hannah's FYP\Black6_neu.jpg"	"cockroach"	"Black"	"forehead"	"Neg"	111	578	1	0	7	"Con"
2	59	"C:\Hannah's FYP\Black13_neu.jpg"	"success"	"Black"	"eyes"	"Pos"	122	652	2	0	7	"Incon"
2	60	"C:\Hannah's FYP\Black11_neu.jpg"	"disgust"	"Black"	"eyes"	"Neg"	121	970	1	0	7	"Con"
2	61	"C:\Hannah's FYP\White10_neu.jpg"	"cockroach"	"White"	"eyes"	"Neg"	221	659	1	0	7	"Incon"
2	62	"C:\Hannah's FYP\White19_neu.jpg"	"vacation"	"White"	"nose"	"Pos"	232	574	2	0	7	"Con"
2	63	"C:\Hannah's FYP\Black3_neu.jpg"	"smile"	"Black"	"forehead"	"Pos"	112	734	2	0	7	"Incon"
2	64	"C:\Hannah's FYP\Black13_neu.jpg"	"cockroach"	"Black"	"eyes"	"Neg"	121	545	1	0	7	"Con"
2	65	"C:\Hannah's FYP\Black20_neu.jpg"	"vomit"	"Black"	"nose"	"Neg"	131	640	1	0	7	"Con"
2	66	"C:\Hannah's FYP\Black21_neu.jpg"	"beauty"	"Black"	"nose"	"Pos"	132	851	2	0	7	"Incon"
2	67	"C:\Hannah's FYP\White18_neu.jpg"	"pest"	"White"	"nose"	"Neg"	231	525	1	0	7	"Incon"
2	68	"C:\Hannah's FYP\Black22_neu.jpg"	"cockroach"	"Black"	"nose"	"Neg"	131	518	1	0	7	"Con"
2	69	"C:\Hannah's FYP\Black20_neu.jpg"	"vacation"	"Black"	"nose"	"Pos"	132	686	2	0	7	"Incon"
2	70	"C:\Hannah's FYP\Black3_neu.jpg"	"joy"	"Black"	"forehead"	"Pos"	112	649	2	0	7	"Incon"
2	71	"C:\Hannah's FYP\White23_neu.jpg"	"success"	"White"	"nose"	"Pos"	232	604	2	0	7	"Con"
2	72	"C:\Hannah's FYP\White11_neu.jpg"	"romance"	"White"	"eyes"	"Pos"	222	581	2	0	7	"Con"
2	73	"C:\Hannah's FYP\White16_neu.jpg"	"sewage"	"White"	"eyes"	"Neg"	221	862	1	0	7	"Incon"
2	74	"C:\Hannah's FYP\White7_neu.jpg"	"pest"	"White"	"forehead"	"Neg"	211	556	1	0	7	"Incon"
2	75	"C:\Hannah's FYP\White8_neu.jpg"	"sewage"	"White"	"forehead"	"Neg"	211	1022	1	0	7	"Incon"
2	76	"C:\Hannah's FYP\White20_neu.jpg"	"beauty"	"White"	"nose"	"Pos"	232	617	2	0	7	"Con"
2	77	"C:\Hannah's FYP\White2_neu.jpg"	"vomit"	"White"	"forehead"	"Neg"	211	625	1	0	7	"Incon"
2	78	"C:\Hannah's FYP\Black4_neu.jpg"	"beauty"	"Black"	"forehead"	"Pos"	112	616	2	0	7	"Incon"
2	79	"C:\Hannah's FYP\Black13_neu.jpg"	"disgust"	"Black"	"eyes"	"Neg"	121	521	1	0	7	"Con"
2	80	"C:\Hannah's FYP\Black1_neu.jpg"	"romance"	"Black"	"forehead"	"Pos"	112	629	2	0	7	"Incon"
2	81	"C:\Hannah's FYP\White14_neu.jpg"	"despair"	"White"	"eyes"	"Neg"	221	585	1	0	7	"Incon"
2	82	"C:\Hannah's FYP\White19_neu.jpg"	"vomit"	"White"	"nose"	"Neg"	231	607	1	0	7	"Incon"
2	83	"C:\Hannah's FYP\Black18_neu.jpg"	"disgust"	"Black"	"nose"	"Neg"	131	615	1	0	7	"Con"
2	84	"C:\Hannah's FYP\Black23_neu.jpg"	"vomit"	"Black"	"nose"	"Neg"	131	629	1	0	7	"Con"
2	85	"C:\Hannah's FYP\Black19_neu.jpg"	"pest"	"Black"	"nose"	"Neg"	131	524	1	0	7	"Con"
2	86	"C:\Hannah's FYP\Black15_neu.jpg"	"joy"	"Black"	"eyes"	"Pos"	122	584	2	0	7	"Incon"
2	87	"C:\Hannah's FYP\White3_neu.jpg"	"poison"	"White"	"forehead"	"Neg"	211	593	1	0	7	"Incon"
2	88	"C:\Hannah's FYP\Black5_neu.jpg"	"disgust"	"Black"	"forehead"	"Neg"	111	618	1	0	7	"Con"
2	89	"C:\Hannah's FYP\Black10_neu.jpg"	"sewage"	"Black"	"eyes"	"Neg"	121	578	1	0	7	"Con"
2	90	"C:\Hannah's FYP\Black4_neu.jpg"	"success"	"Black"	"forehead"	"Pos"	112	596	2	0	7	"Incon"
2	91	"C:\Hannah's FYP\White16_neu.jpg"	"smile"	"White"	"eyes"	"Pos"	222	685	2	0	7	"Con"
2	92	"C:\Hannah's FYP\White8_neu.jpg"	"romance"	"White"	"forehead"	"Pos"	212	633	2	0	7	"Con"
2	93	"C:\Hannah's FYP\White20_neu.jpg"	"garbage"	"White"	"nose"	"Neg"	231	661	1	0	7	"Incon"
2	94	"C:\Hannah's FYP\White3_neu.jpg"	"smile"	"White"	"forehead"	"Pos"	212	636	2	0	7	"Con"
2	95	"C:\Hannah's FYP\Black17_neu.jpg"	"cockroach"	"Black"	"nose"	"Neg"	131	592	1	0	7	"Con"
2	96	"C:\Hannah's FYP\White15_neu.jpg"	"disgust"	"White"	"eyes"	"Neg"	221	537	1	0	7	"Incon"
2	97	"C:\Hannah's FYP\White6_neu.jpg"	"smile"	"White"	"forehead"	"Pos"	212	509	2	0	7	"Con"
2	98	"C:\Hannah's FYP\Black8_neu.jpg"	"smile"	"Black"	"forehead"	"Pos"	112	575	2	0	7	"Incon"
2	99	"C:\Hannah's FYP\White12_neu.jpg"	"smile"	"White"	"eyes"	"Pos"	222	1201	2	0	7	"Con"
2	100	"C:\Hannah's FYP\White1_neu.jpg"	"romance"	"White"	"forehead"	"Pos"	212	920	2	0	7	"Con"
2	101	"C:\Hannah's FYP\Black2_neu.jpg"	"paradise"	"Black"	"forehead"	"Pos"	112	643	2	0	7	"Incon"
2	102	"C:\Hannah's FYP\White20_neu.jpg"	"poison"	"White"	"nose"	"Neg"	231	654	1	0	7	"Incon"
2	103	"C:\Hannah's FYP\Black10_neu.jpg"	"cockroach"	"Black"	"eyes"	"Neg"	121	716	1	0	7	"Con"
2	104	"C:\Hannah's FYP\White3_neu.jpg"	"pest"	"White"	"forehead"	"Neg"	211	576	1	0	7	"Incon"
2	105	"C:\Hannah's FYP\White11_neu.jpg"	"disgust"	"White"	"eyes"	"Neg"	221	674	1	0	7	"Incon"
2	106	"C:\Hannah's FYP\White6_neu.jpg"	"garbage"	"White"	"forehead"	"Neg"	211	632	1	0	7	"Incon"
2	107	"C:\Hannah's FYP\Black19_neu.jpg"	"despair"	"Black"	"nose"	"Neg"	131	719	1	0	7	"Con"
2	108	"C:\Hannah's FYP\Black24_neu.jpg"	"garbage"	"Black"	"nose"	"Neg"	131	584	1	0	7	"Con"
2	109	"C:\Hannah's FYP\White15_neu.jpg"	"success"	"White"	"eyes"	"Pos"	222	785	2	0	7	"Con"
2	110	"C:\Hannah's FYP\Black23_neu.jpg"	"disgust"	"Black"	"nose"	"Neg"	131	590	1	0	7	"Con"
2	111	"C:\Hannah's FYP\White12_neu.jpg"	"success"	"White"	"eyes"	"Pos"	222	575	2	0	7	"Con"
2	112	"C:\Hannah's FYP\Black2_neu.jpg"	"vomit"	"Black"	"forehead"	"Neg"	111	537	1	0	7	"Con"
2	113	"C:\Hannah's FYP\White13_neu.jpg"	"romance"	"White"	"eyes"	"Pos"	222	676	2	0	7	"Con"
2	114	"C:\Hannah's FYP\Black16_neu.jpg"	"vacation"	"Black"	"eyes"	"Pos"	122	674	2	0	7	"Incon"
2	115	"C:\Hannah's FYP\White23_neu.jpg"	"poison"	"White"	"nose"	"Neg"	231	643	1	0	7	"Incon"
2	116	"C:\Hannah's FYP\White10_neu.jpg"	"joy"	"White"	"eyes"	"Pos"	222	706	2	0	7	"Con"
2	117	"C:\Hannah's FYP\White24_neu.jpg"	"romance"	"White"	"nose"	"Pos"	232	750	2	0	7	"Con"
2	118	"C:\Hannah's FYP\Black19_neu.jpg"	"paradise"	"Black"	"nose"	"Pos"	132	704	2	0	7	"Incon"
2	119	"C:\Hannah's FYP\Black1_neu.jpg"	"garbage"	"Black"	"forehead"	"Neg"	111	564	1	0	7	"Con"
2	120	"C:\Hannah's FYP\Black7_neu.jpg"	"romance"	"Black"	"forehead"	"Pos"	112	893	2	0	7	"Incon"
2	121	"C:\Hannah's FYP\Black8_neu.jpg"	"vomit"	"Black"	"forehead"	"Neg"	111	591	1	0	7	"Con"
2	122	"C:\Hannah's FYP\Black8_neu.jpg"	"pest"	"Black"	"forehead"	"Neg"	111	814	1	0	7	"Con"
2	123	"C:\Hannah's FYP\White21_neu.jpg"	"despair"	"White"	"nose"	"Neg"	231	770	1	0	7	"Incon"
2	124	"C:\Hannah's FYP\Black14_neu.jpg"	"garbage"	"Black"	"eyes"	"Neg"	121	691	1	0	7	"Con"
2	125	"C:\Hannah's FYP\White5_neu.jpg"	"vomit"	"White"	"forehead"	"Neg"	211	648	1	0	7	"Incon"
2	126	"C:\Hannah's FYP\Black7_neu.jpg"	"beauty"	"Black"	"forehead"	"Pos"	112	1220	2	0	7	"Incon"
2	127	"C:\Hannah's FYP\Black21_neu.jpg"	"joy"	"Black"	"nose"	"Pos"	132	687	2	0	7	"Incon"
